timestamp,club,max_speed,tempo,w.rotation,l.speed,t.spped,acc,rotation.x,rotation.y,rotation.z,userAcceleration.x,userAcceleration.y,userAcceleration.z,pitch,roll,yaw,gravity.x,gravity.y,gravity.z,impactIndex,minDownIndex,StartIndex,endIndex
1731320600219,9i,7.625128148724916,1.3s : 0.4s,-0.35226357580080503,0.00019889082460336922,0.04649625910472788,0.05927467123343175,-0.19363510608673096,0.0425228476524353,0.11847338080406189,0.007610440254211426,-0.05010214447975159,0.030746430158615112,-0.5166615770835051,1.9370625449340628,2.7822056177730223,0.8118016719818115,0.4939802289009094,0.3113858997821808, 236, 161, 70, 198
1731320600229,9i,7.625128148724916,1.3s : 0.4s,-0.35226357580080503,0.000762208140117086,0.07997234970849398,0.05079662200157789,-0.1897871047258377,0.05208173021674156,0.12979528307914734,-0.003543853759765625,-0.04345771670341492,0.026060789823532104,-0.5123593149718869,1.939039349586776,2.784094405085666,0.8131598234176636,0.49023497104644775,0.3137522339820862, 236, 161, 70, 198
1731320600239,9i,7.625128148724916,1.3s : 0.4s,-0.35226357580080503,0.0016295195313585714,0.10021202399265791,0.07134536271632211,-0.14689229428768158,0.060977753251791,0.15676580369472504,-0.008651435375213623,-0.05934682488441467,0.038642823696136475,-0.5087269225660738,1.941110418969108,2.785792905273651,0.8141627907752991,0.48706579208374023,0.31607797741889954, 236, 161, 70, 198
1731320600249,9i,7.625128148724916,1.3s : 0.4s,-0.35226357580080503,0.002756263174510768,0.10788676784306143,0.07858798373681733,-0.08453252166509628,0.052032727748155594,0.1717040091753006,-0.006917119026184082,-0.060554951429367065,0.04961171746253967,-0.5055009264235225,1.9424761726282818,2.786544552467718,0.8151904940605164,0.48424577713012695,0.31775879859924316, 236, 161, 70, 198
1731320600259,9i,7.625128148724916,1.3s : 0.4s,-0.35226357580080503,0.003886345838937764,0.12170418450165192,0.05405560137976556,-0.14120525121688843,0.05295134335756302,0.1731099635362625,-0.005956053733825684,-0.032866716384887695,0.04250073432922363,-0.5020410049259236,1.943957512288299,2.7873467405880303,0.8162739872932434,0.4812156856060028,0.31957486271858215, 236, 161, 70, 198
1731320600269,9i,7.625128148724916,1.3s : 0.4s,-0.35226357580080503,0.004993175407787902,0.13050868489710452,0.04475656778719646,-0.09752648323774338,0.07550032436847687,0.193977952003479,-0.010330438613891602,-0.021158069372177124,0.0380626916885376,-0.4981227479222113,1.9460469643191842,2.7885618674314534,0.8173524737358093,0.47777724266052246,0.32196828722953796, 236, 161, 70, 198
1731320600279,9i,7.625128148724916,1.3s : 0.4s,-0.35226357580080503,0.006124780079777727,0.12358040718965208,0.06192798866248725,0.13219161331653595,0.08873312920331955,0.20894820988178253,-0.016926705837249756,-0.043999701738357544,0.040157049894332886,-0.49451251362178755,1.9476768643257145,2.78809911890416,0.8184250593185425,0.474602609872818,0.3239327073097229, 236, 161, 70, 198
1731320600289,9i,7.625128148724916,1.3s : 0.4s,-0.35226357580080503,0.007269650368316843,0.12468095279514026,0.06475973324554572,-0.07902423292398453,0.07434114068746567,0.1728794276714325,-0.024508953094482422,-0.05862396955490112,0.01250457763671875,-0.49193854980140156,1.9485863432158907,2.787104707495232,0.8192629814147949,0.47233545780181885,0.3251264989376068, 236, 161, 70, 198
1731320600299,9i,7.625128148724916,1.3s : 0.4s,-0.35226357580080503,0.008163588979953243,0.14079932427551506,0.021188829133369107,-0.1883862018585205,0.09889628738164902,0.19296589493751526,-0.020074129104614258,0.0033869147300720215,-0.005875766277313232,-0.4891715938125813,1.9500385026452887,2.7880403142301478,0.8200007081031799,0.46989479660987854,0.32679837942123413, 236, 161, 70, 198
1731320600309,9i,7.625128148724916,1.3s : 0.4s,-0.35226357580080503,0.009076927644374847,0.16550845796347263,0.05356007317487481,-0.23817266523838043,0.17196409404277802,0.1917474865913391,-0.006345927715301514,-0.023765653371810913,0.047577351331710815,-0.48624345024479765,1.9523732845221657,2.7896630008034577,0.8205090165138245,0.46730804443359375,0.32922300696372986, 236, 161, 70, 198
1731320600318,9i,7.625128148724916,1.3s : 0.4s,-0.35226357580080503,0.010431770575603743,0.2112469365898856,0.11608776812189603,-0.22847391664981842,0.6557323932647705,-0.3407749533653259,-0.026751041412353516,-0.11000779271125793,0.025671720504760742,-0.4837246919021506,1.9549179907370204,2.791464978161107,0.8207573890686035,0.46507975459098816,0.3317500054836273, 236, 161, 70, 198
1731320600328,9i,7.625128148724916,1.3s : 0.4s,-0.35226357580080503,0.011651323133902282,0.31871467091451355,0.03257141708199921,-0.18915846943855286,0.8007761240005493,-0.43541863560676575,0.011073946952819824,-0.022236496210098267,0.021066635847091675,-0.48000214722086343,1.9555013505851349,2.79181040853497,0.8221625685691833,0.4617810845375061,0.3328760862350464, 236, 161, 70, 198
1731320600338,9i,7.625128148724916,1.3s : 0.4s,-0.35226357580080503,0.012706993568023222,0.2953351603777116,0.042573056538840706,-0.20257113873958588,0.3199940621852875,0.04087416082620621,-0.028448283672332764,0.03139737248420715,0.0041671693325042725,-0.47780232678368256,1.9568474153465856,2.79272615203108,0.8226528763771057,0.4598287343978882,0.3343641459941864, 236, 161, 70, 198
1731320600348,9i,7.625128148724916,1.3s : 0.4s,-0.35226357580080503,0.013625075860996491,0.23874217320693444,0.0323289414619843,-0.17094184458255768,0.10337305814027786,0.20605379343032837,-0.017529547214508057,0.02616456151008606,0.007300078868865967,-0.4757231271080157,1.958462433996913,2.793945725861084,0.8229950666427612,0.4579814076423645,0.3360529839992523, 236, 161, 70, 198
1731320600358,9i,7.625128148724916,1.3s : 0.4s,-0.35226357580080503,0.014490264585285188,0.20530533480106447,0.0243428217137611,-0.18921318650245667,0.08219045400619507,0.1531957983970642,0.0063062310218811035,-0.006804943084716797,0.022505491971969604,-0.4735048731324307,1.9598033195586875,2.795047921943035,0.8234818577766418,0.45600834488868713,0.33754074573516846, 236, 161, 70, 198
1731320600368,9i,7.625128148724916,1.3s : 0.4s,-0.35226357580080503,0.015316222104645802,0.18804104224004445,0.02813862191441064,-0.17580150067806244,0.09782987087965012,0.15457239747047424,-0.02081972360610962,-0.01106444001197815,0.01535901427268982,-0.4714339697166165,1.9612646717783202,2.796265908940048,0.8238592147827148,0.4541642963886261,0.33910250663757324, 236, 161, 70, 198
1731320600378,9i,7.625128148724916,1.3s : 0.4s,-0.35226357580080503,0.016025777149361063,0.17848959075781531,0.03857092896490455,-0.16358040273189545,0.09356561303138733,0.15621469914913177,-0.02281057834625244,0.029816150665283203,0.008853882551193237,-0.4693772367204697,1.9627465305086764,2.7973867147491616,0.8242172598838806,0.45233094692230225,0.3406790494918823, 236, 161, 70, 198
1731320600388,9i,7.625128148724916,1.3s : 0.4s,-0.35226357580080503,0.016596508298392165,0.18009890825289673,0.043292397123915326,-0.2465628981590271,0.081242635846138,0.1450970619916916,-0.02177196741104126,0.035708725452423096,-0.01118481159210205,-0.46723680757589325,1.964246181892484,2.798823079061757,0.8245978951454163,0.45042097568511963,0.34228515625, 236, 161, 70, 198
1731320600398,9i,7.625128148724916,1.3s : 0.4s,-0.35226357580080503,0.01704216091818528,0.19467177742152325,0.037394184271410114,-0.315397709608078,0.0783795639872551,0.15013374388217926,-0.009036540985107422,0.03517979383468628,-0.008890897035598755,-0.46478859566073044,1.9660770484131702,2.801110578234968,0.8249849081039429,0.44823384284973145,0.34421786665916443, 236, 161, 70, 198
1731320600408,9i,7.625128148724916,1.3s : 0.4s,-0.35226357580080503,0.017043437296630166,0.21085530622061868,0.06532400752193616,-0.3424506187438965,0.0666307583451271,0.15369650721549988,-0.015405595302581787,0.06347230076789856,0.0010773241519927979,-0.462124608114041,1.9680481453239076,2.8038722527503586,0.8254032135009766,0.44585084915161133,0.34630414843559265, 236, 161, 70, 198
1731320600418,9i,7.625128148724916,1.3s : 0.4s,-0.35226357580080503,0.016803052555055584,0.21958146690907873,0.05723588784490575,-0.32876482605934143,0.04852952063083649,0.14857903122901917,-0.008455634117126465,0.056582242250442505,0.001702636480331421,-0.459442350922862,1.9698725176469427,2.806675897206588,0.825869083404541,0.44344836473464966,0.3482728898525238, 236, 161, 70, 198
1731320600428,9i,7.625128148724916,1.3s : 0.4s,-0.35226357580080503,0.01652224450925723,0.22092219196323898,0.04631882100793074,-0.31010353565216064,0.03995147719979286,0.1546963006258011,-0.004084587097167969,0.04593542218208313,-0.00432276725769043,-0.45685193605157093,1.9714729629604242,2.809320197342737,0.8263654112815857,0.4411250948905945,0.3500409722328186, 236, 161, 70, 198
1731320600438,9i,7.625128148724916,1.3s : 0.4s,-0.35226357580080503,0.016084510667088967,0.22269469530605263,0.05943208133607571,-0.3143802285194397,0.028547465801239014,0.15839573740959167,-0.011433720588684082,0.05466371774673462,-0.0203302800655365,-0.4542180114341248,1.9729200195258765,2.81182569214981,0.8269245028495789,0.4387597441673279,0.35168999433517456, 236, 161, 70, 198
1731320600448,9i,7.625128148724916,1.3s : 0.4s,-0.35226357580080503,0.015479171545247687,0.22943505678764178,0.06744407066750492,-0.3301818370819092,0.018500691279768944,0.1679503619670868,-0.01578587293624878,0.06063729524612427,-0.02495250105857849,-0.45146081252920583,1.9742837916508305,2.8144080192715495,0.8275535106658936,0.4362804591655731,0.35329100489616394, 236, 161, 70, 198
1731320600458,9i,7.625128148724916,1.3s : 0.4s,-0.35226357580080503,0.01487160326148304,0.24131274943401868,0.05035893832439259,-0.3594820499420166,0.07085497677326202,0.163063645362854,-0.014188110828399658,0.03988268971443176,-0.027278035879135132,-0.4485829642323316,1.9757977233425439,2.8171780377498274,0.8281683325767517,0.4336891174316406,0.35503673553466797, 236, 161, 70, 198
1731320600468,9i,7.625128148724916,1.3s : 0.4s,-0.35226357580080503,0.01428837492496971,0.2714512683683942,0.04675615538971661,-0.42767947912216187,0.4957343637943268,-0.18500244617462158,-0.02194833755493164,0.021326512098312378,-0.035349518060684204,-0.4458936399822558,1.9772324121892426,2.820173610762983,0.8287261128425598,0.43126431107521057,0.35668420791625977, 236, 161, 70, 198
1731320600478,9i,7.625128148724916,1.3s : 0.4s,-0.35226357580080503,0.013701469586469645,0.31081569694823735,0.04203639975793912,-0.4373725354671478,0.44348785281181335,-0.07758234441280365,0.010810554027557373,0.02295863628387451,-0.03351256251335144,-0.44229515459665625,1.9773160922450446,2.8226768615834574,0.8301166296005249,0.428014874458313,0.3573650121688843, 236, 161, 70, 198
1731320600488,9i,7.625128148724916,1.3s : 0.4s,-0.35226357580080503,0.01312646972062311,0.2897256713172407,0.06627206784606784,-0.34702983498573303,0.113929383456707,0.099720798432827,-0.03925037384033203,0.02783823013305664,-0.045567840337753296,-0.4393798938992376,1.9784694209378424,2.8253821551239233,0.8308458924293518,0.42537835240364075,0.35881537199020386, 236, 161, 70, 198
1731320600498,9i,7.625128148724916,1.3s : 0.4s,-0.35226357580080503,0.012556740142808236,0.2655509597722653,0.07411025552640862,-0.3175799548625946,0.009882613085210323,0.18531113862991333,-0.042430758476257324,0.03188154101371765,-0.05172550678253174,-0.4367684176017167,1.9798779643479636,2.8280133352156165,0.83135586977005,0.42301347851753235,0.3604258596897125, 236, 161, 70, 198
1731320600508,9i,7.625128148724916,1.3s : 0.4s,-0.35226357580080503,0.012034724293824985,0.25624262856181057,0.06412509419029366,-0.3243845999240875,0.0077539486810564995,0.16313819587230682,-0.028727710247039795,0.0275384783744812,-0.05028298497200012,-0.4339684932442936,1.9809355332570169,2.830484821881323,0.832056999206543,0.42047473788261414,0.361775666475296, 236, 161, 70, 198
1731320600518,9i,7.625128148724916,1.3s : 0.4s,-0.35226357580080503,0.011600091306605043,0.25142793971672894,0.05464144830914316,-0.31455981731414795,0.01828639581799507,0.1644878089427948,-0.030858516693115234,0.02353513240814209,-0.038464754819869995,-0.43123514910091615,1.9820811407607068,2.8329693914304226,0.8326927423477173,0.4179931879043579,0.36318689584732056, 236, 161, 70, 198
1731320600528,9i,7.625128148724916,1.3s : 0.4s,-0.35226357580080503,0.011267725958360767,0.23619635302743971,0.05262079286708841,-0.27256283164024353,0.0779406726360321,0.09545441716909409,-0.030670344829559326,0.026374220848083496,-0.03365528583526611,-0.42858183133514705,1.9832864219063469,2.835217077723472,0.833267331123352,0.4155813157558441,0.3646335303783417, 236, 161, 70, 198
1731320600538,9i,7.625128148724916,1.3s : 0.4s,-0.35226357580080503,0.011048974528012331,0.21458233397471627,0.057968021172038905,-0.2150450497865677,0.123380146920681,0.04032345116138458,-0.03428018093109131,0.03305801749229431,-0.03305038809776306,-0.4261167143291162,1.9843203789959802,2.836913700959929,0.8338255882263184,0.4133378863334656,0.3659055233001709, 236, 161, 70, 198
1731320600548,9i,7.625128148724916,1.3s : 0.4s,-0.35226357580080503,0.010935441261441633,0.19168477936287018,0.06031367816376142,-0.1681438535451889,0.10888642072677612,0.062473759055137634,-0.027449190616607666,0.04172694683074951,-0.03381040692329407,-0.4237529544054622,1.9852006340423578,2.838128433801478,0.8343948721885681,0.4111843407154083,0.36703160405158997, 236, 161, 70, 198
1731320600558,9i,7.625128148724916,1.3s : 0.4s,-0.35226357580080503,0.010939126294185392,0.16941714525796767,0.06659124033613423,-0.141014963388443,0.012110081501305103,0.14006446301937103,-0.028790295124053955,0.052583009004592896,-0.028992056846618652,-0.421553476362974,1.985957414416476,2.8390126811366816,0.8349425792694092,0.4091784358024597,0.3680269122123718, 236, 161, 70, 198
1731320600568,9i,7.625128148724916,1.3s : 0.4s,-0.35226357580080503,0.01106551930692263,0.1706650889624152,0.05783198863825836,-0.14858339726924896,-0.13683386147022247,0.3020347058773041,-0.024251043796539307,0.04625299572944641,-0.024841219186782837,-0.41932778338645665,1.986741907404235,2.8400097599630434,0.8354843854904175,0.4071465730667114,0.3690487742424011, 236, 161, 70, 198
1731320600578,9i,7.625128148724916,1.3s : 0.4s,-0.35226357580080503,0.011311356282824885,0.21611755394101012,0.037913163224646496,-0.12077134847640991,-0.3146602213382721,0.4851672053337097,-0.018473386764526367,0.030722320079803467,-0.01234021782875061,-0.4171374639557235,1.9875662748053535,2.8409871091149306,0.8359936475753784,0.4051450490951538,0.37009766697883606, 236, 161, 70, 198
1731320600588,9i,7.625128148724916,1.3s : 0.4s,-0.35226357580080503,0.011632449592296291,0.30571971451300134,0.023275758457272266,-0.09368220716714859,-0.4807552099227905,0.66326904296875,-0.01251220703125,0.016428828239440918,-0.010737746953964233,-0.4152312196518342,1.988342185984568,2.841840697087979,0.8364105820655823,0.40340152382850647,0.3710586726665497, 236, 161, 70, 198
1731320600598,9i,7.625128148724916,1.3s : 0.4s,-0.35226357580080503,0.012007615692882436,0.4074067961627473,0.03135148739527569,-0.02921326830983162,-0.5765334367752075,0.8028907775878906,-0.010079145431518555,0.02263343334197998,-0.019210785627365112,-0.41355385388381816,1.9889135737789372,2.8421928010839297,0.8368157148361206,0.4018661081790924,0.37181079387664795, 236, 161, 70, 198
1731320600608,9i,7.625128148724916,1.3s : 0.4s,-0.35226357580080503,0.012422568768088626,0.4857438216382409,0.05442658016444314,0.0065945289097726345,-0.5749557614326477,0.8281226754188538,-0.005582451820373535,0.050466954708099365,-0.019600391387939453,-0.4122027905012207,1.9892071087411143,2.8419385729763236,0.837201714515686,0.40062859654426575,0.3722766041755676, 236, 161, 70, 198
1731320600618,9i,7.625128148724916,1.3s : 0.4s,-0.35226357580080503,0.012862694729067627,0.5078873038943114,0.05735633178898932,-0.01907188631594181,-0.4345892071723938,0.7140334248542786,0.0010920166969299316,0.05025839805603027,-0.027616113424301147,-0.41108180958900326,1.9893414827283307,2.8414715300605677,0.8375616073608398,0.3996012508869171,0.3725714385509491, 236, 161, 70, 198
1731320600628,9i,7.625128148724916,1.3s : 0.4s,-0.35226357580080503,0.013316546927378813,0.4520983414744868,0.040759821489459225,-0.0788811519742012,-0.1801004558801651,0.4459500312805176,0.005349874496459961,0.03444647789001465,-0.021123021841049194,-0.4100042451315757,1.9895785326022324,2.841292991028793,0.8378661274909973,0.39861321449279785,0.3729448616504669, 236, 161, 70, 198
1731320600638,9i,7.625128148724916,1.3s : 0.4s,-0.35226357580080503,0.013754310837439913,0.32803732439809086,0.020717291250389343,-0.12116509675979614,0.12706232070922852,0.11239074915647507,0.004590392112731934,0.019243955612182617,-0.006148546934127808,-0.4088617301096083,1.9898426183225724,2.841421542847005,0.8381831049919128,0.3975651264190674,0.37335115671157837, 236, 161, 70, 198
1731320600648,9i,7.625128148724916,1.3s : 0.4s,-0.35226357580080503,0.014136742206712592,0.25151727536998664,0.009008626399307,-0.13657574355602264,0.39402103424072266,-0.20420929789543152,0.0008809566497802734,0.008836358785629272,-0.0015159249305725098,-0.40778215044843225,1.9901513668674156,2.841758393010355,0.8384590148925781,0.39657431840896606,0.3737843632698059, 236, 161, 70, 198
1731320600658,9i,7.625128148724916,1.3s : 0.4s,-0.35226357580080503,0.014517220749542937,0.12006693120053237,0.015362624074074367,-0.13644397258758545,0.5919963717460632,-0.450806587934494,-0.0009003877639770508,0.011851251125335693,-0.009733825922012329,-0.4067919817666428,1.9904261397048226,2.842178567647676,0.838714599609375,0.39566513895988464,0.374174565076828, 236, 161, 70, 198
1731320600668,9i,7.625128148724916,1.3s : 0.4s,-0.35226357580080503,0.014911287878625517,0.20841954234212728,0.031104846022092944,-0.10681898146867752,0.6787754893302917,-0.5998261570930481,-0.004223465919494629,0.02384808659553528,-0.019517749547958374,-0.4059411886679728,1.9906847110236514,2.842535322918038,0.8389250636100769,0.3948836326599121,0.3745286166667938, 236, 161, 70, 198
1731320600678,9i,7.625128148724916,1.3s : 0.4s,-0.35226357580080503,0.015334064074031772,0.3228864219233605,0.036442911265468156,-0.08263049274682999,0.6600563526153564,-0.6401984691619873,-0.009699821472167969,0.028614401817321777,-0.02037683129310608,-0.4052873610844301,1.9909103646608723,2.842812605049785,0.8390758633613586,0.39428284764289856,0.37482303380966187, 236, 161, 70, 198
1731320600688,9i,7.625128148724916,1.3s : 0.4s,-0.35226357580080503,0.01579293738038402,0.382354275805453,0.034333675424427744,-0.07037995010614395,0.5445480942726135,-0.5670004487037659,-0.016509592533111572,0.02390354871749878,-0.01829904317855835,-0.40475171369402013,1.9911683937156561,2.8431413746991234,0.8391720056533813,0.3937905430793762,0.3751257359981537, 236, 161, 70, 198
1731320600698,9i,7.625128148724916,1.3s : 0.4s,-0.35226357580080503,0.016285027168268077,0.3780140707553795,0.02975142593387812,-0.05658550560474396,0.3602850139141083,-0.3995594382286072,-0.020903348922729492,0.019298642873764038,-0.008704006671905518,-0.4042170861107035,1.991560180284654,2.8436056496775532,0.8392170071601868,0.39329907298088074,0.37554043531417847, 236, 161, 70, 198
1731320600708,9i,7.625128148724916,1.3s : 0.4s,-0.35226357580080503,0.016802562244320845,0.3107711220141707,0.02937101658808789,-0.07290056347846985,0.13029974699020386,-0.1848045438528061,-0.02210181951522827,0.019136130809783936,0.002823948860168457,-0.4036469985284122,1.992041987710577,2.844272436281103,0.8392404913902283,0.3927748501300812,0.3760363459587097, 236, 161, 70, 198
1731320600718,9i,7.625128148724916,1.3s : 0.4s,-0.35226357580080503,0.01732557358934963,0.19956891391661236,0.02594772792301211,-0.06573166698217392,-0.08865692466497421,0.06017708033323288,-0.018889248371124268,0.014211326837539673,0.010701358318328857,-0.4029627710302565,1.9926337744999054,2.8452240368082515,0.839262843132019,0.3921455144882202,0.3766429126262665, 236, 161, 70, 198
1731320600728,9i,7.625128148724916,1.3s : 0.4s,-0.35226357580080503,0.017846992926170074,0.06968158034836194,0.027171214790393104,-0.017493296414613724,-0.2736627161502838,0.27062806487083435,-0.01777893304824829,0.014394223690032959,0.014662563800811768,-0.4022829880488555,1.9931473220389755,2.8458871204670317,0.8393121957778931,0.39152008295059204,0.3771830201148987, 236, 161, 70, 198
1731320600738,9i,7.625128148724916,1.3s : 0.4s,-0.35226357580080503,0.018372582753173897,0.07903850073873976,0.026449365256769695,0.005965623538941145,-0.3932061493396759,0.41255879402160645,-0.018658816814422607,0.017200559377670288,0.007453739643096924,-0.4018367047864751,1.9935426419228086,2.846215738370824,0.8393223285675049,0.3911094069480896,0.3775864541530609, 236, 161, 70, 198
1731320600748,9i,7.625128148724916,1.3s : 0.4s,-0.35226357580080503,0.018917395092692583,0.18593245047544113,0.03239992608591165,-0.017020918428897858,-0.4335261583328247,0.4949559271335602,-0.02342623472213745,0.022211283445358276,0.00276145339012146,-0.4014159523746961,1.993962396055101,2.8465338058363736,0.839313805103302,0.3907221257686615,0.37800630927085876, 236, 161, 70, 198
1731320600758,9i,7.625128148724916,1.3s : 0.4s,-0.35226357580080503,0.019470027918358283,0.2580832731983012,0.028040968399704026,-0.06884803622961044,-0.39970073103904724,0.4894668459892273,-0.02255547046661377,0.016209691762924194,0.003846108913421631,-0.40085768240170067,1.9944903739578705,2.8471021356608985,0.8393127918243408,0.3902081847190857,0.37853899598121643, 236, 161, 70, 198
1731320600768,9i,7.625128148724916,1.3s : 0.4s,-0.35226357580080503,0.020000552493713086,0.28604614236536147,0.022727187000595707,-0.0929642915725708,-0.3045448958873749,0.4174586832523346,-0.02044963836669922,-0.0027857422828674316,0.009517192840576172,-0.40017633035023453,1.9951299614661229,2.8479396815113183,0.8393124938011169,0.38958075642585754,0.3791850507259369, 236, 161, 70, 198
1731320600778,9i,7.625128148724916,1.3s : 0.4s,-0.35226357580080503,0.020494515454280948,0.2693777155129233,0.025681074920645065,-0.08314088732004166,-0.16982313990592957,0.2916940152645111,-0.01793348789215088,-0.009934425354003906,0.015466570854187012,-0.39950535693568817,1.9957126720696372,2.848683129783136,0.8393293619155884,0.38896268606185913,0.37978172302246094, 236, 161, 70, 198
1731320600788,9i,7.625128148724916,1.3s : 0.4s,-0.35226357580080503,0.0209637290402767,0.21911461994933296,0.019040950266029897,-0.058687739074230194,-0.022094938904047012,0.15888482332229614,-0.014020740985870361,0.002659231424331665,0.012605756521224976,-0.3989035510962575,1.9961700951235104,2.8491077330973913,0.8393685221672058,0.38840821385383606,0.3802621066570282, 236, 161, 70, 198
1731320600798,9i,7.625128148724916,1.3s : 0.4s,-0.35226357580080503,0.021434604578233853,0.14843241462648707,0.027194086024744206,-0.04203952103853226,0.10587447881698608,0.017669638618826866,-0.009407281875610352,0.025510013103485107,-0.000510483980178833,-0.39831496733879057,1.9964501564228427,2.849112273967847,0.8394700288772583,0.3878657817840576,0.380591481924057, 236, 161, 70, 198
1731320600808,9i,7.625128148724916,1.3s : 0.4s,-0.35226357580080503,0.021904779961632682,0.12382682913778373,0.02907190863154531,-0.05811675637960434,0.21340467035770416,-0.09595173597335815,-0.005113661289215088,0.027315646409988403,-0.008537083864212036,-0.3976804697936038,1.996693222823053,2.8491025202519236,0.839601457118988,0.3872808814048767,0.3808971345424652, 236, 161, 70, 198
1731320600818,9i,7.625128148724916,1.3s : 0.4s,-0.35226357580080503,0.0223622788038419,0.06335935915970736,0.01805962617564245,-0.05433666706085205,0.2686823010444641,-0.17117005586624146,-0.00697702169418335,0.014223247766494751,-0.00867009162902832,-0.39701895368962026,1.9969799473921652,2.8491350376180606,0.8397254347801208,0.38667088747024536,0.3812437355518341, 236, 161, 70, 198
1731320600828,9i,7.625128148724916,1.3s : 0.4s,-0.35226357580080503,0.022812590703755537,0.08399530566821492,0.017761920535268455,-0.07021043449640274,0.26890841126441956,-0.20064698159694672,-0.012425005435943604,0.009713351726531982,-0.00817042589187622,-0.39634999701255036,1.997275269771721,2.8492908773101076,0.8398482203483582,0.3860538899898529,0.38159865140914917, 236, 161, 70, 198
1731320600838,9i,7.625128148724916,1.3s : 0.4s,-0.35226357580080503,0.023247913113508465,0.11762583391126039,0.014229982097286141,-0.0886341854929924,0.23741067945957184,-0.18350662291049957,-0.01174461841583252,0.0044678449630737305,-0.0066779255867004395,-0.39560197502158045,1.9976270768784297,2.8496994208631636,0.8399764895439148,0.38536372780799866,0.3820135295391083, 236, 161, 70, 198
1731320600848,9i,7.625128148724916,1.3s : 0.4s,-0.35226357580080503,0.02365933575441095,0.13136154427550084,0.010047829391736617,-0.1147797703742981,0.1729336827993393,-0.13520513474941254,-0.009395778179168701,0.000677943229675293,-0.003495514392852783,-0.3947980286292842,1.9980818309205168,2.8504773888273274,0.8400843143463135,0.3846217691898346,0.38252371549606323, 236, 161, 70, 198
1731320600858,9i,7.625128148724916,1.3s : 0.4s,-0.35226357580080503,0.024044773501173643,0.12488613189369371,0.011765812465217847,-0.09686188399791718,0.10511956363916397,-0.07323423027992249,-0.01033318042755127,-0.0041616857051849365,-0.003786832094192505,-0.3940075390398293,1.9985874069477017,2.851359581515539,0.8401672840118408,0.3838919699192047,0.38307443261146545, 236, 161, 70, 198
1731320600868,9i,7.625128148724916,1.3s : 0.4s,-0.35226357580080503,0.024417016451049118,0.10223953936780786,0.019833841452455425,-0.08230025321245193,0.03549947217106819,-0.011488579213619232,-0.012735724449157715,-0.002774953842163086,-0.014949321746826172,-0.39338154435963646,1.9990598409578049,2.852145494975038,0.8402045369148254,0.3833138644695282,0.38357099890708923, 236, 161, 70, 198
1731320600877,9i,7.625128148724916,1.3s : 0.4s,-0.35226357580080503,0.02480026372578437,0.07319203063543113,0.03106031183204602,-0.06381891667842865,-0.025468986481428146,0.04612654447555542,-0.014830827713012695,0.009083360433578491,-0.02573484182357788,-0.39281755356181947,1.9994404775912034,2.8528555788860603,0.8402551412582397,0.3827928900718689,0.3839806318283081, 236, 161, 70, 198
1731320600887,9i,7.625128148724916,1.3s : 0.4s,-0.35226357580080503,0.025212919072404732,0.06482178571700074,0.037802109876200314,-0.05160113424062729,-0.0589907243847847,0.08007679134607315,-0.013767361640930176,0.025821328163146973,-0.023931533098220825,-0.3922734821060267,1.9996429102124422,2.8533476104754913,0.8403663635253906,0.38229018449783325,0.384237140417099, 236, 161, 70, 198
1731320600897,9i,7.625128148724916,1.3s : 0.4s,-0.35226357580080503,0.025626784647004013,0.05861325948560362,0.027233780292566043,-0.058029402047395706,-0.05715305358171463,0.08279284834861755,-0.006752133369445801,0.01711764931678772,-0.0200766921043396,-0.39173535544239424,1.9998019976391108,2.8538129716963625,0.8404924273490906,0.3817928731441498,0.38445645570755005, 236, 161, 70, 198
1731320600907,9i,7.625128148724916,1.3s : 0.4s,-0.35226357580080503,0.026025797600845692,0.05439579142041531,0.01791037307801128,-0.053273528814315796,-0.0377681702375412,0.06679949909448624,-0.0062934160232543945,0.006224125623703003,-0.015570312738418579,-0.39122229487927307,1.9999896434950595,2.8542788332435327,0.8405983448028564,0.3813186287879944,0.3846956491470337, 236, 161, 70, 198
1731320600917,9i,7.625128148724916,1.3s : 0.4s,-0.35226357580080503,0.026421352062805804,0.05128999753233089,0.01817507994727394,-0.04605783149600029,-0.016649216413497925,0.03715698421001434,-0.011161744594573975,0.008287400007247925,-0.011707603931427002,-0.39108648995174405,2.0000702423964754,2.8546228085952667,0.8406140804290771,0.3811931014060974,0.3847847878932953, 236, 161, 70, 198
1731320600927,9i,7.625128148724916,1.3s : 0.4s,-0.35226357580080503,0.026821434829169644,0.047284833905218475,0.0227155724788517,-0.04180502891540527,0.0026523086708039045,0.02638024091720581,-0.013348937034606934,0.009800374507904053,-0.015548497438430786,-0.39085305762858424,2.000148071344286,2.854894912533701,0.840665340423584,0.3809772729873657,0.3848873972892761, 236, 161, 70, 198
1731320600937,9i,7.625128148724916,1.3s : 0.4s,-0.35226357580080503,0.027230610384630007,0.04524686418807958,0.024393015892778615,-0.042576875537633896,-0.0012138024903833866,0.02586941048502922,-0.012826025485992432,0.014570772647857666,-0.014771759510040283,-0.390528899608702,2.000252040798235,2.855168195589564,0.8407372236251831,0.38067755103111267,0.38502606749534607, 236, 161, 70, 198
1731320600947,9i,7.625128148724916,1.3s : 0.4s,-0.35226357580080503,0.02764479810141698,0.043913678669177524,0.022263451897616065,-0.04662248492240906,-0.0022204769775271416,0.03262585029006004,-0.010560929775238037,0.01697307825088501,-0.009800136089324951,-0.3902412812909178,2.0000922490530546,2.8553787497269814,0.8408985137939453,0.3804115653038025,0.3849373757839203, 236, 161, 70, 198
1731320600957,9i,7.625128148724916,1.3s : 0.4s,-0.35226357580080503,0.028047594700731537,0.04274777313087386,0.015468659575211216,-0.047968316823244095,-0.004130763001739979,0.024577045813202858,-0.008522450923919678,0.012377917766571045,0.0036652982234954834,-0.3903096572682032,1.9996973835701422,2.8555051503275033,0.8410266041755676,0.3804748058319092,0.3845944106578827, 236, 161, 70, 198
1731320600967,9i,7.625128148724916,1.3s : 0.4s,-0.35226357580080503,0.0284136685364835,0.04194181674123668,0.010569039953084398,-0.048819996416568756,-0.003154181642457843,0.0317489393055439,-0.004501938819885254,-0.00021982192993164062,0.0095597505569458,-0.39069921582201284,1.9993660836016363,2.8557137009212883,0.8410192131996155,0.38083502650260925,0.38425418734550476, 236, 161, 70, 198
1731320600977,9i,7.625128148724916,1.3s : 0.4s,-0.35226357580080503,0.028764821332610522,0.03986006466836485,0.011198148050459576,-0.029996372759342194,-0.004000623244792223,0.028447749093174934,-0.009192466735839844,0.005387842655181885,0.0034450292587280273,-0.39082289675729226,1.9990398423353493,2.85581116249279,0.8411015868186951,0.38094937801361084,0.38396018743515015, 236, 161, 70, 198
1731320600987,9i,7.625128148724916,1.3s : 0.4s,-0.35226357580080503,0.029131030739936597,0.037914041698398446,0.023250144312240744,-0.02383887767791748,-0.007332504261285067,0.03373865410685539,-0.013959527015686035,0.018003791570663452,-0.004643738269805908,-0.3906942557927053,1.998781754878633,2.8558446936379687,0.8412454128265381,0.38083043694496155,0.38376349210739136, 236, 161, 70, 198
1731320600997,9i,7.625128148724916,1.3s : 0.4s,-0.35226357580080503,0.029511315224573027,0.03661950423887817,0.02352134405441893,-0.031937018036842346,-0.0013201513793319464,0.024463661015033722,-0.01412343978881836,0.018332719802856445,-0.004206359386444092,-0.39065206447909145,1.9986710668208942,2.8559367276274235,0.8413025140762329,0.38079142570495605,0.38367706537246704, 236, 161, 70, 198
1731320601007,9i,7.625128148724916,1.3s : 0.4s,-0.35226357580080503,0.02989744503060703,0.03647754177642277,0.02007407696041534,-0.04777856543660164,0.00773566123098135,0.020530972629785538,-0.016994774341583252,0.010677337646484375,-0.0003750622272491455,-0.39066356965200444,1.9986535442337703,2.856176994458875,0.8413049578666687,0.38080206513404846,0.38366037607192993, 236, 161, 70, 198
1731320601017,9i,7.625128148724916,1.3s : 0.4s,-0.35226357580080503,0.030280757976028944,0.03669930337044579,0.01987140000878563,-0.05201505497097969,0.01109026838093996,0.02242584526538849,-0.01932436227798462,0.0029157698154449463,0.0035971999168395996,-0.3907240011022006,1.9987314693725278,2.856499750137837,0.8412541151046753,0.3808579444885254,0.3837163746356964, 236, 161, 70, 198
1731320601027,9i,7.625128148724916,1.3s : 0.4s,-0.35226357580080503,0.03065859184850604,0.03755474610032744,0.021164738499858102,-0.061547573655843735,0.014296714216470718,0.023590978235006332,-0.020251333713531494,0.0004768669605255127,0.006132066249847412,-0.39075430151834306,1.9989525960614112,2.8569341160896724,0.8411588072776794,0.3808859586715698,0.3838976323604584, 236, 161, 70, 198
1731320601037,9i,7.625128148724916,1.3s : 0.4s,-0.35226357580080503,0.031032779233974878,0.039106661225424624,0.02103805780482101,-0.06658747047185898,0.012005774304270744,0.037219904363155365,-0.01743793487548828,0.006664067506790161,0.009700953960418701,-0.3904824229317794,1.9994114822585574,2.8574592155041185,0.8410769104957581,0.3806345760822296,0.384326696395874, 236, 161, 70, 198
1731320601047,9i,7.625128148724916,1.3s : 0.4s,-0.35226357580080503,0.03140917171889863,0.03996127120628764,0.024222780891196092,-0.0597468763589859,0.008662441745400429,0.04008626565337181,-0.011090874671936035,0.019339829683303833,0.009471356868743896,-0.38987659249309253,1.9999151769804318,2.8579940270520914,0.8410927653312683,0.38007426261901855,0.38484618067741394, 236, 161, 70, 198
1731320601057,9i,7.625128148724916,1.3s : 0.4s,-0.35226357580080503,0.03178937605285966,0.040497503115548915,0.022677395695440587,-0.05856003984808922,0.015216836705803871,0.030447151511907578,-0.010013937950134277,0.019947797060012817,0.004008829593658447,-0.38949975296682027,2.000315787281687,2.8584624452706926,0.841068685054779,0.37972569465637207,0.3852427303791046, 236, 161, 70, 198
1731320601067,9i,7.625128148724916,1.3s : 0.4s,-0.35226357580080503,0.032174812809561,0.03995118265929377,0.021213354282191704,-0.0417054258286953,0.015890881419181824,0.029289476573467255,-0.017157673835754395,0.01172018051147461,0.004272937774658203,-0.3895030761379657,2.000583071557042,2.858805236991044,0.8409644365310669,0.379728764295578,0.38546693325042725, 236, 161, 70, 198
1731320601077,9i,7.625128148724916,1.3s : 0.4s,-0.35226357580080503,0.03256882699403028,0.039663723812760496,0.02271896035171741,-0.048173047602176666,0.004263521172106266,0.02786608226597309,-0.019110262393951416,0.011739134788513184,0.003625154495239258,-0.389548561325618,2.000781241943735,2.8590956457581966,0.8408722877502441,0.37977084517478943,0.3856263756752014, 236, 161, 70, 198
1731320601087,9i,7.625128148724916,1.3s : 0.4s,-0.35226357580080503,0.03296149786174061,0.04034201348896445,0.01721099950567408,-0.06351471692323685,0.006095243152230978,0.027656225487589836,-0.01220238208770752,0.010233759880065918,-0.006526142358779907,-0.38937792445297603,2.001080790699297,2.859545278390729,0.840815544128418,0.3796129822731018,0.3859052360057831, 236, 161, 70, 198
1731320601097,9i,7.625128148724916,1.3s : 0.4s,-0.35226357580080503,0.03333864029255218,0.047410073351512864,0.011582461106560988,-0.09666495025157928,0.007012879475951195,0.019342103973031044,-0.010950803756713867,0.002296924591064453,-0.0029928982257843018,-0.3890505285145632,2.001571670824127,2.8602838541194973,0.8407388925552368,0.37931007146835327,0.3863697946071625, 236, 161, 70, 198
1731320601107,9i,7.625128148724916,1.3s : 0.4s,-0.35226357580080503,0.033684395172261176,0.05684659296638452,0.020146076295412874,-0.11456378549337387,0.008518364280462265,0.027216538786888123,-0.013645410537719727,-0.014573425054550171,-0.0026986002922058105,-0.3885494617421098,2.00227065958323,2.861366778136038,0.8406410813331604,0.3788464069366455,0.3870367705821991, 236, 161, 70, 198
1731320601117,9i,7.625128148724916,1.3s : 0.4s,-0.35226357580080503,0.034007215095145094,0.05684306234218482,0.020220847265724037,-0.07858294993638992,0.007581997197121382,0.031298331916332245,-0.015891730785369873,-0.012500673532485962,0.00026214122772216797,-0.3881070395131399,2.002930778431999,2.862278766253188,0.8405377268791199,0.3784369230270386,0.3876618444919586, 236, 161, 70, 198
1731320601127,9i,7.625128148724916,1.3s : 0.4s,-0.35226357580080503,0.034324558240470565,0.05562283646122724,0.0129716587899908,-0.058316826820373535,0.0072541618719697,0.03447867929935455,-0.012295007705688477,0.002690047025680542,-0.0031401216983795166,-0.38791679059716255,2.0034027984650953,2.8628787590398783,0.8404198884963989,0.3782608211040497,0.3880886733531952, 236, 161, 70, 198
1731320601137,9i,7.625128148724916,1.3s : 0.4s,-0.35226357580080503,0.034655210488759816,0.054425479897032905,0.020894076319023104,-0.05597204715013504,0.012782707810401917,0.03404012322425842,-0.014341294765472412,0.011635899543762207,-0.009772181510925293,-0.38776395401688535,2.0037304477019506,2.8633105868472053,0.8403453230857849,0.3781193196773529,0.38838833570480347, 236, 161, 70, 198
1731320601147,9i,7.625128148724916,1.3s : 0.4s,-0.35226357580080503,0.0350015619034016,0.05372293998841736,0.022496872989915175,-0.059485822916030884,0.00961487740278244,0.040959544479846954,-0.018207788467407227,0.009484052658081055,-0.009199917316436768,-0.3875005722867005,2.004143685549616,2.8637745027374795,0.8402748703956604,0.3778754770755768,0.3887772858142853, 236, 161, 70, 198
1731320601157,9i,7.625128148724916,1.3s : 0.4s,-0.35226357580080503,0.03533817077333267,0.052675315079803796,0.017969296519525065,-0.05517309904098511,0.012051936239004135,0.033165544271469116,-0.0164526104927063,-0.005185216665267944,-0.005031973123550415,-0.38722659777044804,2.0045432230685774,2.8641976883665414,0.8402137160301208,0.3776217997074127,0.38915660977363586, 236, 161, 70, 198
1731320601167,9i,7.625128148724916,1.3s : 0.4s,-0.35226357580080503,0.035656034141268764,0.05238140018475647,0.016590453164030055,-0.06455221772193909,0.01592417247593403,0.03423852473497391,-0.013684868812561035,-0.00873112678527832,-0.0034256279468536377,-0.38691983215562736,2.004789133014108,2.864624564286291,0.8402230739593506,0.3773377537727356,0.38941192626953125, 236, 161, 70, 198
1731320601177,9i,7.625128148724916,1.3s : 0.4s,-0.35226357580080503,0.035969647137101525,0.05150976177882671,0.014396917705131726,-0.053130052983760834,0.014003322459757328,0.038079407066106796,-0.013527393341064453,0.0007226169109344482,-0.004874289035797119,-0.38648209462787075,2.0050685896536553,2.865006733577869,0.8402636647224426,0.3769323229789734,0.3897160291671753, 236, 161, 70, 198
1731320601187,9i,7.625128148724916,1.3s : 0.4s,-0.35226357580080503,0.03628627698267038,0.049892331975212055,0.0154102387046866,-0.04027524217963219,0.011232037097215652,0.0379347950220108,-0.010980963706970215,0.010495513677597046,-0.0025957822799682617,-0.3858483963905621,2.005306245921728,2.8652954532448893,0.8403876423835754,0.37634530663490295,0.39001625776290894, 236, 161, 70, 198
1731320601197,9i,7.625128148724916,1.3s : 0.4s,-0.35226357580080503,0.03660485766511636,0.04919598783415932,0.015445366833027023,-0.05670388415455818,0.012442976236343384,0.027062108740210533,-0.010269880294799805,0.009554386138916016,-0.006465494632720947,-0.3852832213340876,2.0056283535693242,2.865655062490636,0.8404549360275269,0.37582162022590637,0.3903765380382538, 236, 161, 70, 198
1731320601207,9i,7.625128148724916,1.3s : 0.4s,-0.35226357580080503,0.036913996012294954,0.049025282986398404,0.010169851161393224,-0.05777500569820404,0.012742582708597183,0.04062904790043831,-0.008834242820739746,0.005027830600738525,-0.00032085180282592773,-0.38488233183428816,2.0059032889480544,2.86610123447996,0.8404841423034668,0.375450074672699,0.3906710743904114, 236, 161, 70, 198
1731320601217,9i,7.625128148724916,1.3s : 0.4s,-0.35226357580080503,0.03720774098606099,0.047514871498198295,0.008078726101069682,-0.03670627251267433,0.0015858013648539782,0.0401172898709774,-0.006372034549713135,0.004171907901763916,0.0026941001415252686,-0.384604057586507,2.0060037101303174,2.8663431443570957,0.8405396342277527,0.37519213557243347,0.39079952239990234, 236, 161, 70, 198
1731320601227,9i,7.625128148724916,1.3s : 0.4s,-0.35226357580080503,0.03749159910583703,0.04564589379894041,0.012169766042521726,-0.025218462571501732,0.0029522692784667015,0.0438837967813015,-0.0018628835678100586,0.011308729648590088,-0.004092127084732056,-0.384411043086185,2.0060352412284344,2.866431474421331,0.8405926823616028,0.37501323223114014,0.39085641503334045, 236, 161, 70, 198
1731320601237,9i,7.625128148724916,1.3s : 0.4s,-0.35226357580080503,0.03776896810841325,0.04385618365721565,0.0129300223124757,-0.021161068230867386,0.011817222461104393,0.042462900280952454,-0.0032616853713989258,0.0124797523021698,-0.0008959174156188965,-0.3840038100758614,2.0061680566276356,2.866472444363974,0.8406791687011719,0.3746356964111328,0.3910324275493622, 236, 161, 70, 198
1731320601247,9i,7.625128148724916,1.3s : 0.4s,-0.35226357580080503,0.03804239392988801,0.04238517520786604,0.011635965041615176,-0.02606155164539814,0.010107206180691719,0.03763778507709503,-0.009666860103607178,0.003045022487640381,-0.005716234445571899,-0.38353174515516775,2.006313628951065,2.866530658829312,0.8407824635505676,0.37419795989990234,0.3912293612957001, 236, 161, 70, 198
1731320601257,9i,7.625128148724916,1.3s : 0.4s,-0.35226357580080503,0.038301888228772764,0.04022334270327395,0.015200756613471963,-0.011327945627272129,0.01567889377474785,0.03774827718734741,-0.010035276412963867,-0.007063180208206177,-0.008970379829406738,-0.3832759425624268,2.006451814326746,2.866551962079414,0.8408152461051941,0.3739607334136963,0.3913860023021698, 236, 161, 70, 198
1731320601267,9i,7.625128148724916,1.3s : 0.4s,-0.35226357580080503,0.03855283773736233,0.038359239733791156,0.013594599019266124,-0.009571324102580547,0.014915366657078266,0.036569029092788696,-0.01020878553390503,-0.003853440284729004,-0.008108317852020264,-0.3831549957516139,2.00661980855365,2.8665002317932116,0.8407905101776123,0.373848557472229,0.3915463387966156, 236, 161, 70, 198
1731320601277,9i,7.625128148724916,1.3s : 0.4s,-0.35226357580080503,0.0387960904315703,0.03719352248734785,0.01042531169258565,-0.017314864322543144,0.014446294866502285,0.03803103789687157,-0.0076645612716674805,0.00011074542999267578,-0.007066071033477783,-0.38301023389245764,2.0066959805778914,2.8664490047100135,0.8408095240592957,0.37371426820755005,0.39163312315940857, 236, 161, 70, 198
1731320601287,9i,7.625128148724916,1.3s : 0.4s,-0.35226357580080503,0.039020540074071304,0.03565787687564832,0.004735188932611874,-0.0078451968729496,0.008333008736371994,0.03821372985839844,-0.00229489803314209,-0.0005418956279754639,-0.004106312990188599,-0.3827597193953351,2.0068309129655875,2.8664056839379195,0.8408415913581848,0.3734818994998932,0.391786128282547, 236, 161, 70, 198
1731320601297,9i,7.625128148724916,1.3s : 0.4s,-0.35226357580080503,0.0392268377648555,0.033955708793273046,0.008497226831791469,-0.0013362979516386986,0.012242884375154972,0.035112012177705765,0.00043332576751708984,0.0007310807704925537,-0.008454620838165283,-0.3825059967604026,2.0069642744968688,2.8663100425953103,0.8408751487731934,0.37324652075767517,0.3919382691383362, 236, 161, 70, 198
1731320601307,9i,7.625128148724916,1.3s : 0.4s,-0.35226357580080503,0.039424663567449864,0.03236857351712659,0.015164168190793215,0.005774342454969883,0.011910787783563137,0.03851713240146637,-0.0037877559661865234,-0.0015105903148651123,-0.014605581760406494,-0.38238935165671956,2.0069626169997252,2.8661082978956753,0.8409152626991272,0.37313830852508545,0.39195525646209717, 236, 161, 70, 198
1731320601317,9i,7.625128148724916,1.3s : 0.4s,-0.35226357580080503,0.039619997931861696,0.030568577125179353,0.016947636346580294,0.013400902971625328,0.0057261292822659016,0.03641499578952789,-0.007496953010559082,-0.003026247024536133,-0.014894962310791016,-0.3823126163899576,2.006947495788477,2.865836330074678,0.8409472107887268,0.37306711077690125,0.3919546902179718, 236, 161, 70, 198
1731320601327,9i,7.625128148724916,1.3s : 0.4s,-0.35226357580080503,0.03982023413533761,0.028587665654643577,0.013778606937316798,0.020775195211172104,0.0005777061451226473,0.03295102342963219,-0.007272601127624512,0.00464281439781189,-0.010742604732513428,-0.3821876622101057,2.0068491533741626,2.865519675478318,0.8410281538963318,0.3729511797428131,0.391891747713089, 236, 161, 70, 198
1731320601337,9i,7.625128148724916,1.3s : 0.4s,-0.35226357580080503,0.04001865884835131,0.026764694217244624,0.010139580619729015,0.024273524060845375,0.0029315853025764227,0.02995709702372551,-0.002783536911010742,0.00906553864479065,-0.003588736057281494,-0.3819763848486658,2.006649360372362,2.8651235557265444,0.841177761554718,0.37275514006614685,0.39175692200660706, 236, 161, 70, 198
1731320601347,9i,7.625128148724916,1.3s : 0.4s,-0.35226357580080503,0.0402107050895207,0.0253840236861177,0.010430004969715405,0.019587691873311996,-0.0017531812191009521,0.03009052202105522,0.00025212764739990234,0.009066283702850342,-0.005150139331817627,-0.3818274924180653,2.0064641821440206,2.864770549043722,0.8413004279136658,0.3726169764995575,0.39162448048591614, 236, 161, 70, 198
1731320601357,9i,7.625128148724916,1.3s : 0.4s,-0.35226357580080503,0.04040287787056117,0.023890208918343436,0.012686828401589509,0.027166981250047684,0.0026117395609617233,0.024737801402807236,-0.0025142431259155273,0.007958710193634033,-0.009554743766784668,-0.3817549992375679,2.006281348712308,2.8643868637083254,0.8413966298103333,0.37254971265792847,0.3914821147918701, 236, 161, 70, 198
1731320601367,9i,7.625128148724916,1.3s : 0.4s,-0.35226357580080503,0.04061177317459467,0.022182811594318997,0.018050970238159474,0.037406839430332184,0.0004029138945043087,0.017891880124807358,-0.00900888442993164,0.011482656002044678,-0.010621964931488037,-0.381739385331305,2.0061141399826603,2.8639674511473516,0.8414672613143921,0.37253519892692566,0.3913438022136688, 236, 161, 70, 198
1731320601377,9i,7.625128148724916,1.3s : 0.4s,-0.35226357580080503,0.040854920088617304,0.02035504586649069,0.028068364224091102,0.04191051051020622,0.007454343140125275,0.0068975514732301235,-0.012211263179779053,0.02101057767868042,-0.014045417308807373,-0.3818310915200338,2.0058839396965,2.8634869468770234,0.8415262699127197,0.3726203143596649,0.39113569259643555, 236, 161, 70, 198
1731320601387,9i,7.625128148724916,1.3s : 0.4s,-0.35226357580080503,0.04117462637872236,0.019956823215005026,0.03846222789824153,0.06961217522621155,0.012685856781899929,-0.005218233447521925,-0.013298571109771729,0.03077542781829834,-0.018851101398468018,-0.3820785833096035,2.005620897920966,2.8629086963569854,0.8415454030036926,0.3728499710559845,0.3908754289150238, 236, 161, 70, 198
1731320601397,9i,7.625128148724916,1.3s : 0.4s,-0.35226357580080503,0.041583393542807816,0.03707280092714408,0.04411108673363408,0.12828581035137177,0.027023516595363617,-0.03088514879345894,-0.014308810234069824,0.03823274374008179,-0.01671236753463745,-0.38267530732077965,2.0053303118063277,2.8619942503676428,0.8414573669433594,0.3734036087989807,0.390537291765213, 236, 161, 70, 198
1731320601407,9i,7.625128148724916,1.3s : 0.4s,-0.35226357580080503,0.04207451670759938,0.06506778334033592,0.04863016241503106,0.18574750423431396,0.039175521582365036,-0.06582928448915482,-0.013671934604644775,0.044707298278808594,-0.013387620449066162,-0.38388757301673143,2.005087548977865,2.8606708374192693,0.8411409258842468,0.3745279014110565,0.3901422619819641, 236, 161, 70, 198
1731320601417,9i,7.625128148724916,1.3s : 0.4s,-0.35226357580080503,0.042739469642527346,0.10112969973589389,0.06933437225920558,0.254391074180603,0.054778534919023514,-0.09864618629217148,-0.01014798879623413,0.06830832362174988,-0.006184369325637817,-0.38565366964635517,2.004873479364939,2.858878755855707,0.8406227827072144,0.37616488337516785,0.3896833062171936, 236, 161, 70, 198
1731320601426,9i,7.625128148724916,1.3s : 0.4s,-0.35226357580080503,0.04362799467225703,0.1395274792921889,0.10786484480997278,0.303184449672699,0.06186867132782936,-0.15050005912780762,0.001215517520904541,0.10763651132583618,-0.006908595561981201,-0.3879699796768848,2.004629078145081,2.8567178465063763,0.8399250507354736,0.37831005454063416,0.3891105055809021, 236, 161, 70, 198
1731320601436,9i,7.625128148724916,1.3s : 0.4s,-0.35226357580080503,0.0447615820405522,0.1888341103362276,0.13459858385959428,0.4011267125606537,0.09849131107330322,-0.18685553967952728,0.008054375648498535,0.13435068726539612,-0.0013411343097686768,-0.3909927224884773,2.0043517480384976,2.85402365141675,0.8389914035797119,0.3811064064502716,0.38839539885520935, 236, 161, 70, 198
1731320601446,9i,7.625128148724916,1.3s : 0.4s,-0.35226357580080503,0.04618097771337086,0.24390210369285595,0.14560544703120257,0.47496896982192993,0.13621844351291656,-0.25565242767333984,0.0026783347129821777,0.1455792784690857,-0.0006681382656097412,-0.3948102005208463,2.004263101410157,2.8507334739128556,0.837699294090271,0.38463300466537476,0.38770705461502075, 236, 161, 70, 198
1731320601456,9i,7.625128148724916,1.3s : 0.4s,-0.35226357580080503,0.047943618286503314,0.3072231073213183,0.1532524999472575,0.5490586757659912,0.18648827075958252,-0.3583018481731415,-0.008459687232971191,0.15264731645584106,-0.010656416416168213,-0.39975462112393334,2.004432023889119,2.8470562351771216,0.8358981609344482,0.3891923129558563,0.38704490661621094, 236, 161, 70, 198
1731320601466,9i,7.625128148724916,1.3s : 0.4s,-0.35226357580080503,0.05001765083440335,0.36334107602194876,0.15510908768775147,0.5471603870391846,0.2328248769044876,-0.4476146697998047,-0.0194818377494812,0.15387636423110962,-0.0011625885963439941,-0.4057330192532603,2.0051153449813373,2.8434585949108677,0.833507776260376,0.3946923613548279,0.38662999868392944, 236, 161, 70, 198
1731320601476,9i,7.625128148724916,1.3s : 0.4s,-0.35226357580080503,0.05240352476328912,0.42190243420944545,0.17095796945304123,0.567959725856781,0.2908650040626526,-0.549405574798584,-0.02512514591217041,0.1679838001728058,0.01941126585006714,-0.41260952426561404,2.0064399628876344,2.8402824981316828,0.8305146098136902,0.4010012149810791,0.3865792453289032, 236, 161, 70, 198
1731320601486,9i,7.625128148724916,1.3s : 0.4s,-0.35226357580080503,0.05519661123087981,0.4933329676313423,0.2156847183350419,0.6839978694915771,0.36054903268814087,-0.6123107671737671,-0.025327563285827637,0.2081514298915863,0.050511330366134644,-0.42051145578488547,2.0082889677728715,2.83685478459079,0.8269023895263672,0.40822741389274597,0.3867596685886383, 236, 161, 70, 198
1731320601496,9i,7.625128148724916,1.3s : 0.4s,-0.35226357580080503,0.05858284912907266,0.5939539951295021,0.25425290105926013,0.922061026096344,0.4447590708732605,-0.6922308206558228,-0.03207308053970337,0.24941760301589966,0.03750619292259216,-0.42973343692241167,2.010271001975967,2.831967808976996,0.8226918578147888,0.41662847995758057,0.38677945733070374, 236, 161, 70, 198
1731320601506,9i,7.625128148724916,1.3s : 0.4s,-0.35226357580080503,0.06267713884250396,0.7246856457573154,0.2865426902424399,1.1664526462554932,0.5432741641998291,-0.8374080061912537,-0.04905515909194946,0.2807111442089081,0.030025959014892578,-0.441078657010081,2.0122604703652063,2.825026019392469,0.8175945281982422,0.42691513895988464,0.386370986700058, 236, 161, 70, 198
1731320601516,9i,7.625128148724916,1.3s : 0.4s,-0.35226357580080503,0.06746421765156564,0.8578928015665336,0.3095599113408869,1.2462904453277588,0.6704866886138916,-1.0173958539962769,-0.07867807149887085,0.2938947081565857,0.05712267756462097,-0.4546723224869678,2.014948895631427,2.8172966715953054,0.8112371563911438,0.43916794657707214,0.3860380947589874, 236, 161, 70, 198
1731320601526,9i,7.625128148724916,1.3s : 0.4s,-0.35226357580080503,0.07314780372191515,0.9886791334548867,0.3847123017492692,1.3249375820159912,0.8089646697044373,-1.1492656469345093,-0.10466510057449341,0.3525469899177551,0.11295747756958008,-0.4699165160303285,2.0189379505154275,2.809654515602834,0.8035633563995361,0.4528118669986725,0.38632524013519287, 236, 161, 70, 198
1731320601536,9i,7.625128148724916,1.3s : 0.4s,-0.35226357580080503,0.07994669893352428,1.1343519548826655,0.47075799340994673,1.5136727094650269,0.9134687781333923,-1.3060626983642578,-0.10320353507995605,0.4323541224002838,0.15502268075942993,-0.4871020203857962,2.023712351177476,2.801292975936574,0.794594407081604,0.468066930770874,0.38669461011886597, 236, 161, 70, 198
1731320601546,9i,7.625128148724916,1.3s : 0.4s,-0.35226357580080503,0.08787677432891822,1.2860907453816122,0.5119167265923061,1.6948001384735107,1.0168172121047974,-1.4383714199066162,-0.10159605741500854,0.47865399718284607,0.1504238247871399,-0.5064846777874882,2.0288285868698943,2.7918323136131855,0.7843199372291565,0.4851062595844269,0.3866700232028961, 236, 161, 70, 198
1731320601556,9i,7.625128148724916,1.3s : 0.4s,-0.35226357580080503,0.09703795082630917,1.4422148352608497,0.5585495806069385,1.903944492340088,1.12553071975708,-1.5352715253829956,-0.1310754418373108,0.526136577129364,0.1340789496898651,-0.5277815194147644,2.0341186549896437,2.780923444243013,0.7728447914123535,0.5036180019378662,0.3861081898212433, 236, 161, 70, 198
1731320601566,9i,7.625128148724916,1.3s : 0.4s,-0.35226357580080503,0.10727204192677856,1.6044106408093566,0.5786400699922316,2.1066431999206543,1.2483890056610107,-1.6546666622161865,-0.16538888216018677,0.5392469167709351,0.12916505336761475,-0.5510040338259442,2.0394989798370715,2.7683063058925534,0.760115385055542,0.5235429406166077,0.3848729431629181, 236, 161, 70, 198
1731320601576,9i,7.625128148724916,1.3s : 0.4s,-0.35226357580080503,0.11819403892760993,1.7634283920715945,0.5677155839895137,2.2298035621643066,1.4072027206420898,-1.780645728111267,-0.20691490173339844,0.5073267817497253,0.1486833691596985,-0.5761109484940999,2.0454815474089756,2.7545808755837418,0.7458706498146057,0.5447667837142944,0.3832836449146271, 236, 161, 70, 198
1731320601586,9i,7.625128148724916,1.3s : 0.4s,-0.35226357580080503,0.1299510066813882,1.9276743884981213,0.6343268807428932,2.3638713359832764,1.6052789688110352,-1.9260514974594116,-0.27165794372558594,0.5310513377189636,0.21577078104019165,-0.6030650064694887,2.0526240933759747,2.740259616907176,0.7298336625099182,0.5671694874763489,0.3816564381122589, 236, 161, 70, 198
1731320601596,9i,7.625128148724916,1.3s : 0.4s,-0.35226357580080503,0.14305456325342955,2.0935700030899924,0.7531633912815106,2.4600815773010254,1.7715827226638794,-2.120760440826416,-0.34199631214141846,0.6164082288742065,0.26520654559135437,-0.6321901108651097,2.0610391858128496,2.7256095613498386,0.7117169499397278,0.5909129977226257,0.37984341382980347, 236, 161, 70, 198
1731320601606,9i,7.625128148724916,1.3s : 0.4s,-0.35226357580080503,0.15784567095682075,2.254404779999702,0.8527722472606496,2.5737783908843994,1.9014579057693481,-2.2660953998565674,-0.39970213174819946,0.7083690166473389,0.2562655806541443,-0.6633671750358182,2.0706002755613535,2.7108443406041816,0.6915417909622192,0.6157734394073486,0.37761497497558594, 236, 161, 70, 198
1731320601616,9i,7.625128148724916,1.3s : 0.4s,-0.35226357580080503,0.17456453134537964,2.4291126551512585,0.9566985518879704,2.824927568435669,1.9903496503829956,-2.4348433017730713,-0.43597495555877686,0.8122958540916443,0.25568222999572754,-0.696910265769187,2.080210480445746,2.6950889753452367,0.6694649457931519,0.6418514847755432,0.3739563226699829, 236, 161, 70, 198
1731320601626,9i,7.625128148724916,1.3s : 0.4s,-0.35226357580080503,0.1931268941684565,2.6206924324334295,1.0259637741373875,3.1291942596435547,2.053511619567871,-2.6256160736083984,-0.4543668031692505,0.8852518796920776,0.2499631643295288,-0.7334692434596299,2.088699853804494,2.677092024077169,0.6454373598098755,0.6694508194923401,0.36775821447372437, 236, 161, 70, 198
1731320601636,9i,7.625128148724916,1.3s : 0.4s,-0.35226357580080503,0.21319160351511596,2.8248319352260625,1.05762477744788,3.3193881511688232,2.13813853263855,-2.9372634887695312,-0.4780377745628357,0.9089905023574829,0.2525595426559448,-0.7736084590170277,2.096273314243945,2.657449726750962,0.6188763976097107,0.6987212300300598,0.35885998606681824, 236, 161, 70, 198
1731320601646,9i,7.625128148724916,1.3s : 0.4s,-0.35226357580080503,0.2342609350102251,3.0147212203556264,1.0548019530221004,3.295135498046875,2.232222557067871,-3.28509259223938,-0.49470168352127075,0.8870954513549805,0.2844979166984558,-0.8171175945745728,2.1049879438749173,2.638996882297749,0.5889856219291687,0.7291763424873352,0.34842121601104736, 236, 161, 70, 198
1731320601656,9i,7.625128148724916,1.3s : 0.4s,-0.35226357580080503,0.2558300397941235,3.187122223410138,1.0327877290697212,3.262986183166504,2.269103765487671,-3.602017402648926,-0.5012574195861816,0.8388720154762268,0.3341934084892273,-0.8634612496029155,2.1159325673300606,2.6234059275836255,0.5556243658065796,0.7600962519645691,0.336948961019516, 236, 161, 70, 198
1731320601666,9i,7.625128148724916,1.3s : 0.4s,-0.35226357580080503,0.277426209725613,3.3512047880482565,0.9839368595079437,3.319568634033203,2.2817318439483643,-3.8595900535583496,-0.47332829236984253,0.794321596622467,0.3363707363605499,-0.912425934341937,2.128405695920891,2.6099735577651137,0.5191505551338196,0.7909902930259705,0.32375484704971313, 236, 161, 70, 198
1731320601676,9i,7.625128148724916,1.3s : 0.4s,-0.35226357580080503,0.29877346938590726,3.503112837528934,0.9319975057492846,3.4809703826904297,2.209371566772461,-4.019674301147461,-0.4098495841026306,0.7951072454452515,0.2616240382194519,-0.9638498400337324,2.1404839396431576,2.596943936107872,0.48028409481048584,0.8213934302330017,0.3076353669166565, 236, 161, 70, 198
1731320601686,9i,7.625128148724916,1.3s : 0.4s,-0.35226357580080503,0.32010248698702276,3.6488719961492198,0.9450835748458449,3.7320375442504883,2.0876214504241943,-4.143070697784424,-0.3316628932952881,0.866107702255249,0.181769460439682,-1.0176140801196494,2.1496074260819684,2.581981072746956,0.4398171901702881,0.8508569002151489,0.2874075770378113, 236, 161, 70, 198
1731320601696,9i,7.625128148724916,1.3s : 0.4s,-0.35226357580080503,0.3414231083662106,3.787768310814769,0.9683704100042787,3.8439419269561768,1.9237598180770874,-4.389592170715332,-0.25251123309135437,0.9285467863082886,0.10853660106658936,-1.0741004225544006,2.1553765998306265,2.5653332996721754,0.39739343523979187,0.8791618347167969,0.2629689574241638, 236, 161, 70, 198
1731320601706,9i,7.625128148724916,1.3s : 0.4s,-0.35226357580080503,0.3627021925733568,3.919570240295737,0.970604327141368,3.8820302486419678,1.7917604446411133,-4.65296745300293,-0.19778254628181458,0.9462919235229492,0.086524099111557,-1.1333105888959307,2.1598467139517465,2.549349454469759,0.3522625267505646,0.9058197140693665,0.23537519574165344, 236, 161, 70, 198
1731320601716,9i,7.625128148724916,1.3s : 0.4s,-0.35226357580080503,0.3840844945068624,4.040483670459874,1.0072481265620583,3.879570960998535,1.6942548751831055,-4.881371021270752,-0.17042988538742065,0.9791893362998962,0.16337284445762634,-1.1944276759309207,2.1642911116849626,2.535158508392676,0.30469197034835815,0.9300054311752319,0.2055540531873703, 236, 161, 70, 198
1731320601726,9i,7.625128148724916,1.3s : 0.4s,-0.35226357580080503,0.4059265537633626,4.163574414952269,1.0752927733589916,3.8840816020965576,1.599840760231018,-5.1602606773376465,-0.13789376616477966,1.0403127670288086,0.2344977706670761,-1.2577061444461204,2.1696926913348604,2.5232290487664013,0.25439462065696716,0.9513863325119019,0.17362888157367706, 236, 161, 70, 198
1731320601736,9i,7.625128148724916,1.3s : 0.4s,-0.35226357580080503,0.42845418566971966,4.282491502334364,1.1470118777209657,3.8312017917633057,1.4833518266677856,-5.443957805633545,-0.08518822491168976,1.1185824871063232,0.2390657514333725,-1.3230838767857844,2.1799953562852363,2.5177251694433838,0.20107874274253845,0.9694758057594299,0.14029812812805176, 236, 161, 70, 198
1731320601746,9i,7.625128148724916,1.3s : 0.4s,-0.35226357580080503,0.45187723207782815,4.403968001302453,1.2426669874603098,3.9742934703826904,1.3529083728790283,-5.606086730957031,-0.0026469677686691284,1.2294150590896606,0.1809774786233902,-1.3906155675067982,2.19534944232984,2.5187648668976457,0.1453777402639389,0.9838113188743591,0.10478902608156204, 236, 161, 70, 198
1731320601756,9i,7.625128148724916,1.3s : 0.4s,-0.35226357580080503,0.4763746705948962,4.533841021627376,1.364791943741355,4.253498077392578,1.1649333238601685,-5.723536491394043,0.11761555075645447,1.3542828559875488,0.1214148998260498,-1.460491811884731,2.209527203735089,2.5202638582672083,0.08837815374135971,0.9939226508140564,0.06562723219394684, 236, 161, 70, 198
1731320601766,9i,7.625128148724916,1.3s : 0.4s,-0.35226357580080503,0.5018390267677727,4.654266405146506,1.4431979612737822,4.429686546325684,0.9512391090393066,-5.818982124328613,0.2453942596912384,1.4152004718780518,0.14074671268463135,-1.5326861411478507,2.2167421513691803,2.5167985355870495,0.030423671007156372,0.9992738962173462,0.02293418161571026, 236, 161, 70, 198
1731320601776,9i,7.625128148724916,1.3s : 0.4s,-0.35226357580080503,0.5276341683451778,4.740252133755268,1.4154563119099277,4.443960666656494,0.7408527135848999,-5.849420070648193,0.3509669303894043,1.3526071310043335,0.22537243366241455,-1.5356526259207537,-0.9150332687680014,-0.6234757463315812,-0.027846762910485268,0.999382495880127,-0.021423576399683952, 236, 161, 70, 198
1731320601786,9i,7.625128148724916,1.3s : 0.4s,-0.35226357580080503,0.5530324454367633,4.795454512356648,1.3335330908323928,4.3846869468688965,0.5769319534301758,-5.877997875213623,0.41618266701698303,1.226912260055542,0.31589365005493164,-1.4623580046601425,-0.9172329632011482,-0.6323290806846413,-0.08592136204242706,0.9941263198852539,-0.06580221652984619, 236, 161, 70, 198
1731320601796,9i,7.625128148724916,1.3s : 0.4s,-0.35226357580080503,0.5777113713650721,4.818886328448484,1.2542358390556954,4.244656085968018,0.42394840717315674,-5.898053169250488,0.44002044200897217,1.1012263298034668,0.40839946269989014,-1.3895082762629487,-0.9217438320887079,-0.6419712752167045,-0.1436336636543274,0.9836122989654541,-0.10897635668516159, 236, 161, 70, 198
1731320601806,9i,7.625128148724916,1.3s : 0.4s,-0.35226357580080503,0.6015830419394242,4.830469759072056,1.218976396279786,4.200366020202637,0.31019601225852966,-5.903317451477051,0.4402490258216858,1.0390007495880127,0.4610441327095032,-1.3171457584787816,-0.9268632734912936,-0.6510116958109747,-0.20068593323230743,0.9680027961730957,-0.15064994990825653, 236, 161, 70, 198
1731320601816,9i,7.625128148724916,1.3s : 0.4s,-0.35226357580080503,0.6256400186639895,4.855346938109303,1.2658414133951197,4.330752849578857,0.20007653534412384,-5.91316556930542,0.43927645683288574,1.0895531177520752,0.4714495539665222,-1.2444515047622562,-0.9287759035595864,-0.655673910760153,-0.2567507028579712,0.9472204446792603,-0.19196967780590057, 236, 161, 70, 198
1731320601826,9i,7.625128148724916,1.3s : 0.4s,-0.35226357580080503,0.6500238418458473,4.897652415734164,1.3314650664115522,4.491826057434082,0.0934281051158905,-5.949027061462402,0.4626591205596924,1.1592471599578857,0.4635642170906067,-1.1706367425854087,-0.9278424835658906,-0.6562376571104422,-0.3117801249027252,0.9209988117218018,-0.23356859385967255, 236, 161, 70, 198
1731320601836,9i,7.625128148724916,1.3s : 0.4s,-0.35226357580080503,0.6749638993826144,4.931154718739351,1.3878637146802666,4.54348611831665,-0.04924551025032997,-5.935168743133545,0.5156638622283936,1.2053130865097046,0.45549625158309937,-1.0960269955661424,-0.926494102179305,-0.6550495330787386,-0.3654868006706238,0.8893982172012329,-0.27457287907600403, 236, 161, 70, 198
1731320601846,9i,7.625128148724916,1.3s : 0.4s,-0.35226357580080503,0.7006362331242869,4.937780585672383,1.4668485152179143,4.4990668296813965,-0.23328351974487305,-5.861759185791016,0.5947542190551758,1.2426512241363525,0.5037161111831665,-1.0218063568782538,-0.92661819142394,-0.6535556501125139,-0.4172486960887909,0.853052020072937,-0.31337812542915344, 236, 161, 70, 198
1731320601856,9i,7.625128148724916,1.3s : 0.4s,-0.35226357580080503,0.7269854590799589,4.92085347463086,1.5320840408011243,4.337008953094482,-0.38956835865974426,-5.841704368591309,0.6808584928512573,1.238937258720398,0.5905486345291138,-0.9486111866113686,-0.9291562262882108,-0.6527625373971878,-0.46689969301223755,0.8126068711280823,-0.34881898760795593, 236, 161, 70, 198
1731320601866,9i,7.625128148724916,1.3s : 0.4s,-0.35226357580080503,0.7536438689774716,4.884426865578903,1.5308577134525228,4.014074325561523,-0.4873971939086914,-5.917960166931152,0.7330058813095093,1.1823912858963013,0.6388885378837585,-0.8765742996898892,-0.9354470987681207,-0.6550630143391123,-0.514942467212677,0.7685516476631165,-0.3796875774860382, 236, 161, 70, 198
1731320601876,9i,7.625128148724916,1.3s : 0.4s,-0.35226357580080503,0.7803367759866304,4.834235076923607,1.4945570561343107,3.7443666458129883,-0.5470428466796875,-5.945636749267578,0.742024302482605,1.1287198066711426,0.6396032571792603,-0.8059218814215738,-0.9447297424106471,-0.6605743853269603,-0.5611159801483154,0.7214692831039429,-0.4057471454143524, 236, 161, 70, 198
1731320601886,9i,7.625128148724916,1.3s : 0.4s,-0.35226357580080503,0.8072342051490132,4.772642297902294,1.4769404716363739,3.504531145095825,-0.6945132613182068,-5.927372932434082,0.7661510109901428,1.1095163822174072,0.6027762293815613,-0.736649502004775,-0.9558307150116532,-0.6676170076036488,-0.6050180792808533,0.6718099117279053,-0.42734602093696594, 236, 161, 70, 198
1731320601896,9i,7.625128148724916,1.3s : 0.4s,-0.35226357580080503,0.8342378528170163,4.70437944370897,1.4796871379468388,3.4127283096313477,-0.8012129664421082,-5.814504146575928,0.8348550200462341,1.0942530632019043,0.5432323217391968,-0.6688925372403394,-0.9678950326048211,-0.6745242161334177,-0.6461952328681946,0.6201175451278687,-0.44484373927116394, 236, 161, 70, 198
1731320601906,9i,7.625128148724916,1.3s : 0.4s,-0.35226357580080503,0.8610816197286416,4.642239790648821,1.4946228480615185,3.395927906036377,-0.889372706413269,-5.72129487991333,0.8914684653282166,1.0974053144454956,0.48464730381965637,-0.6022208277317628,-0.9794915279383638,-0.6797509017987439,-0.684162437915802,0.5664740204811096,-0.45937883853912354, 236, 161, 70, 198
1731320601916,9i,7.625128148724916,1.3s : 0.4s,-0.35226357580080503,0.8881108468574929,4.582233988785935,1.4837090294412763,3.308905601501465,-0.9554920196533203,-5.663405418395996,0.9160571098327637,1.0700336694717407,0.46611136198043823,-0.536283469260052,-0.990927779895216,-0.6837076011664066,-0.7190965414047241,0.5109447240829468,-0.4709942638874054, 236, 161, 70, 198
1731320601926,9i,7.625128148724916,1.3s : 0.4s,-0.35226357580080503,0.915219265146105,4.509150041000812,1.4457670255605541,3.1681814193725586,-1.006182312965393,-5.554381847381592,0.9113763570785522,1.014251470565796,0.4805511236190796,-0.4717063118290302,-1.002561878896688,-0.6873516089624709,-0.7508080005645752,0.4544069170951843,-0.47937625646591187, 236, 161, 70, 198
1731320601936,9i,7.625128148724916,1.3s : 0.4s,-0.35226357580080503,0.9415478220770062,4.4151849690191325,1.4085401789178866,2.944267749786377,-1.0820719003677368,-5.420767784118652,0.9138608574867249,0.9568806886672974,0.48293179273605347,-0.4090785740145836,-1.0145214204647206,-0.6909418427092872,-0.7791562080383301,0.39776408672332764,-0.48445773124694824, 236, 161, 70, 198
1731320601946,9i,7.625128148724916,1.3s : 0.4s,-0.35226357580080503,0.9669763239562907,4.315300461215,1.3796556889205995,2.7161436080932617,-1.2157065868377686,-5.323932647705078,0.9487427473068237,0.8860024213790894,0.46726515889167786,-0.34858385298716577,-1.0275421604559851,-0.695048421252989,-0.8045470714569092,0.34156718850135803,-0.4858351945877075, 236, 161, 70, 198
1731320601956,9i,7.625128148724916,1.3s : 0.4s,-0.35226357580080503,0.9915480845023628,4.212040327250886,1.3650324090260246,2.452359676361084,-1.327968716621399,-5.24449348449707,0.9835036993026733,0.8358403444290161,0.44430267810821533,-0.29005098415054775,-1.0418648445138057,-0.6999378045995261,-0.8272840976715088,0.2860010862350464,-0.48353311419487, 236, 161, 70, 198
1731320601966,9i,7.625128148724916,1.3s : 0.4s,-0.35226357580080503,1.0154883388161324,4.1051782594931225,1.3483074334544545,2.185908555984497,-1.378170371055603,-5.160417079925537,0.9887524843215942,0.8237422704696655,0.4021817147731781,-0.23348819314487032,-1.0569764059869635,-0.7058715153487867,-0.8472423553466797,0.23137246072292328,-0.4781705141067505, 236, 161, 70, 198
1731320601976,9i,7.625128148724916,1.3s : 0.4s,-0.35226357580080503,1.039117512740489,3.9942756107699147,1.3357857601048986,2.0445139408111572,-1.4139301776885986,-5.002254009246826,0.9745978713035583,0.8427853584289551,0.35241371393203735,-0.17888863403314162,-1.072181891204718,-0.7120834984162796,-0.8642309308052063,0.17793604731559753,-0.4705778658390045, 236, 161, 70, 198
1731320601985,9i,7.625128148724916,1.3s : 0.4s,-0.35226357580080503,1.0627703204107237,3.880773054307986,1.3371022267360577,1.9235895872116089,-1.5001428127288818,-4.823730945587158,0.984575092792511,0.847954273223877,0.31532174348831177,-0.12628867554691886,-1.087606722925161,-0.7176653004969387,-0.8784652948379517,0.12595325708389282,-0.46090587973594666, 236, 161, 70, 198
1731320601995,9i,7.625128148724916,1.3s : 0.4s,-0.35226357580080503,1.0865845171238624,3.7574332033867806,1.3547623339307509,1.7955561876296997,-1.555497646331787,-4.609494686126709,1.0286515951156616,0.8238813877105713,0.3138093948364258,-0.07588013490835298,-1.1033714611311358,-0.7225939942188869,-0.8901627063751221,0.07580734044313431,-0.44929227232933044, 236, 161, 70, 198
1731320602005,9i,7.625128148724916,1.3s : 0.4s,-0.35226357580080503,1.110502944029081,3.618142914652166,1.367147442993105,1.6092560291290283,-1.5889781713485718,-4.373372554779053,1.0721145868301392,0.789486825466156,0.3104400038719177,-0.02811334247311793,-1.1193146739391069,-0.7270810505928054,-0.8994460105895996,0.028109639883041382,-0.4361267685890198, 236, 161, 70, 198
1731320602015,9i,7.625128148724916,1.3s : 0.4s,-0.35226357580080503,1.1344133843924935,3.459505318569822,1.3593777012022321,1.3956691026687622,-1.6366057395935059,-4.093054294586182,1.1090741157531738,0.7231043577194214,0.3081921935081482,0.016516286733498062,-1.135461310624725,-0.7315605103016274,-0.906605064868927,-0.016515536233782768,-0.42165663838386536, 236, 161, 70, 198
1731320602025,9i,7.625128148724916,1.3s : 0.4s,-0.35226357580080503,1.1581863201643616,3.2831710470622593,1.3544058015960596,1.183398962020874,-1.7074421644210815,-3.772151470184326,1.1523114442825317,0.6351848840713501,0.321144163608551,0.057579940220246914,-1.1519541850081843,-0.7359836913352272,-0.9120464324951172,-0.05754812806844711,-0.4060289263725281, 236, 161, 70, 198
1731320602035,9i,7.625128148724916,1.3s : 0.4s,-0.35226357580080503,1.1816995168246534,3.104302925908185,1.3575733607681695,0.9204699397087097,-1.784328579902649,-3.5090630054473877,1.1959787607192993,0.5334637761116028,0.35785001516342163,0.09505398613340324,-1.1690091204733792,-0.7407305187844513,-0.916208803653717,-0.09491091221570969,-0.3892984688282013, 236, 161, 70, 198
1731320602045,9i,7.625128148724916,1.3s : 0.4s,-0.35226357580080503,1.204802691283876,2.926246974033037,1.3358223979508101,0.6249839663505554,-1.800235390663147,-3.2771031856536865,1.2093031406402588,0.41840869188308716,0.3833295702934265,0.1292787364180424,-1.1862505432727224,-0.7464870808289918,-0.9192334413528442,-0.12891893088817596,-0.3720076382160187, 236, 161, 70, 198
1731320602055,9i,7.625128148724916,1.3s : 0.4s,-0.35226357580080503,1.2255600982592743,2.7522848697735607,1.2825548368397761,0.3911760449409485,-1.7237670421600342,-3.071375846862793,1.189102292060852,0.30349451303482056,0.3726576566696167,0.16058325971393808,-1.2028584367569732,-0.7534288753597518,-0.9210663437843323,-0.15989398956298828,-0.35506436228752136, 236, 161, 70, 198
1731320602065,9i,7.625128148724916,1.3s : 0.4s,-0.35226357580080503,1.244066844378234,2.583185061801059,1.2253229008916546,0.17725388705730438,-1.5990536212921143,-2.8877806663513184,1.1651233434677124,0.2041759192943573,0.319712370634079,0.1893755920430965,-1.2180613069236859,-0.7612595890852909,-0.9216539859771729,-0.18824568390846252,-0.33928945660591125, 236, 161, 70, 198
1731320602075,9i,7.625128148724916,1.3s : 0.4s,-0.35226357580080503,1.2605197550703007,2.4255511359287074,1.191661135664321,-0.1288457214832306,-1.5351366996765137,-2.724581718444824,1.153055191040039,0.12138214707374573,0.275293231010437,0.21576473209609506,-1.2317741733517233,-0.7706114722466404,-0.9212130308151245,-0.21409448981285095,-0.3248538374900818, 236, 161, 70, 198
1731320602085,9i,7.625128148724916,1.3s : 0.4s,-0.35226357580080503,1.2752815951842265,2.2851437428948214,1.190334304163462,-0.38779154419898987,-1.504193902015686,-2.5596070289611816,1.1585240364074707,0.05795963108539581,0.2671301066875458,0.23959722158666052,-1.2444664826371579,-0.7818715769266213,-0.9201663732528687,-0.23731137812137604,-0.31141120195388794, 236, 161, 70, 198
1731320602095,9i,7.625128148724916,1.3s : 0.4s,-0.35226357580080503,1.2898174299198915,2.160851626043482,1.191164590734665,-0.585310697555542,-1.4614529609680176,-2.3950035572052,1.1556940078735352,-0.018323659896850586,0.2879386842250824,0.2614703640907849,-1.256106252787579,-0.7945789251772521,-0.9185723066329956,-0.25850123167037964,-0.29900139570236206, 236, 161, 70, 198
1731320602105,9i,7.625128148724916,1.3s : 0.4s,-0.35226357580080503,1.3024663666973748,2.0491936876480064,1.1604936676034734,-0.7839037179946899,-1.3362388610839844,-2.2657294273376465,1.1203495264053345,-0.10745605826377869,0.28287044167518616,0.28150087947579383,-1.2663990282010043,-0.8085861437170958,-0.9164767265319824,-0.27779775857925415,-0.28792116045951843, 236, 161, 70, 198
1731320602115,9i,7.625128148724916,1.3s : 0.4s,-0.35226357580080503,1.3133243097747063,1.9205033989284754,1.07704041843281,-0.7497101426124573,-1.1244924068450928,-2.0564067363739014,1.0357728004455566,-0.1648450791835785,0.24498340487480164,0.29984824412587524,-1.274603023687852,-0.8230786482866284,-0.9137788414955139,-0.2953752279281616,-0.2788580656051636, 236, 161, 70, 198
1731320602125,9i,7.625128148724916,1.3s : 0.4s,-0.35226357580080503,1.3223833768510311,1.7425423714485468,0.9530828757452874,-0.42408487200737,-0.7855883836746216,-1.7764514684677124,0.9136170148849487,-0.20581158995628357,0.17695340514183044,0.3164734850246128,-1.2805731322001852,-0.8346969378296398,-0.9105956554412842,-0.31121712923049927,-0.271954745054245, 236, 161, 70, 198
1731320602135,9i,7.625128148724916,1.3s : 0.4s,-0.35226357580080503,1.3297197050980183,1.5354359055623197,0.8504663566365084,-0.07747747004032135,-0.5553575754165649,-1.4833619594573975,0.8017341494560242,-0.24287205934524536,0.1467260718345642,0.33136563778501443,-1.2848494803314903,-0.8419519635856819,-0.9072028398513794,-0.32533466815948486,-0.26672127842903137, 236, 161, 70, 198
1731320602145,9i,7.625128148724916,1.3s : 0.4s,-0.35226357580080503,1.3357504597492997,1.3138548790691913,0.7536263289671034,0.22473539412021637,-0.37795379757881165,-1.1688945293426514,0.7209378480911255,-0.2081717550754547,0.06975516676902771,0.34428978719279896,-1.2884494554759167,-0.8449890559669657,-0.9040431380271912,-0.3375282287597656,-0.26226016879081726, 236, 161, 70, 198
1731320602155,9i,7.625128148724916,1.3s : 0.4s,-0.35226357580080503,1.3411773320158062,1.09842209056413,0.7048289311189667,0.3738493025302887,-0.230143740773201,-0.8836461901664734,0.6858817338943481,-0.14671730995178223,0.06945574283599854,0.3549356884317326,-1.2915665037697819,-0.844633476199897,-0.9013510346412659,-0.3475300669670105,-0.2584359645843506, 236, 161, 70, 198
1731320602165,9i,7.625128148724916,1.3s : 0.4s,-0.35226357580080503,1.3460603488166092,0.9047102990014799,0.708460173569611,0.21717819571495056,-0.1292184591293335,-0.6691850423812866,0.6780434846878052,-0.18092653155326843,0.09715163707733154,0.36319994383213217,-1.293662518070531,-0.8435984420604338,-0.8990975022315979,-0.3552672564983368,-0.2557516098022461, 236, 161, 70, 198
1731320602175,9i,7.625128148724916,1.3s : 0.4s,-0.35226357580080503,1.3501199564367528,0.7178619152445554,0.7418490040441773,-0.12277831137180328,-0.019008688628673553,-0.4445223808288574,0.6776844263076782,-0.27554166316986084,0.12312820553779602,0.3687444697426806,-1.2940540095238238,-0.8446190837550968,-0.8972887396812439,-0.360444575548172,-0.2548574209213257, 236, 161, 70, 198
1731320602185,9i,7.625128148724916,1.3s : 0.4s,-0.35226357580080503,1.3539049757849901,0.5360614635473148,0.7652350377441758,-0.5161551833152771,0.11462366580963135,-0.16290080547332764,0.6539894938468933,-0.3663269877433777,0.15390563011169434,0.370794899370867,-1.292074185131938,-0.8487635207660718,-0.8960700631141663,-0.36235642433166504,-0.2564295530319214, 236, 161, 70, 198
1731320602195,9i,7.625128148724916,1.3s : 0.4s,-0.35226357580080503,1.3574462858923122,0.4087464901504019,0.7679552424177872,-0.8616065979003906,0.2876971960067749,0.14306747913360596,0.6238280534744263,-0.4095645546913147,0.18124759197235107,0.3690172898977289,-1.2875226798334012,-0.855889739373776,-0.895510733127594,-0.3606990575790405,-0.2606849670410156, 236, 161, 70, 198
1731320602205,9i,7.625128148724916,1.3s : 0.4s,-0.35226357580080503,1.3600541557559431,0.4027119794398962,0.7268980625042918,-1.0311822891235352,0.47295308113098145,0.5189862251281738,0.5970412492752075,-0.37658166885375977,0.1735188364982605,0.363127213779056,-1.2805304156121875,-0.864739768872541,-0.8956862092018127,-0.35519924759864807,-0.26754361391067505, 236, 161, 70, 198
1731320602215,9i,7.625128148724916,1.3s : 0.4s,-0.35226357580080503,1.3624472444544242,0.49963775583919257,0.6967380004560088,-0.9687187075614929,0.6394816040992737,0.8781868815422058,0.6018320322036743,-0.30807095766067505,0.16832804679870605,0.3535288949229852,-1.2721568431933379,-0.8728695491306346,-0.8966317772865295,-0.3462105989456177,-0.2760246694087982, 236, 161, 70, 198
1731320602225,9i,7.625128148724916,1.3s : 0.4s,-0.35226357580080503,1.3650480680336385,0.6437577215637147,0.7207828211293915,-0.8352269530296326,0.7701040506362915,1.2390691041946411,0.6475285291671753,-0.2707480788230896,0.16410410404205322,0.3407096507383475,-1.263080010251628,-0.878592430510309,-0.898245632648468,-0.3341560363769531,-0.2854726314544678, 236, 161, 70, 198
1731320602235,9i,7.625128148724916,1.3s : 0.4s,-0.35226357580080503,1.3681770109926115,0.8108658431612964,0.7771333548289336,-0.7575830817222595,0.8457949161529541,1.538561224937439,0.709902286529541,-0.2585848867893219,0.1819583773612976,0.3250669102818119,-1.2538813923771344,-0.8819907776809227,-0.900438666343689,-0.3193722069263458,-0.29531601071357727, 236, 161, 70, 198
1731320602245,9i,7.625128148724916,1.3s : 0.4s,-0.35226357580080503,1.3720982284161243,0.9983429331046724,0.8431529522824017,-0.7922846078872681,0.945171594619751,1.8192589282989502,0.7733545303344727,-0.24817460775375366,0.22636041045188904,0.3067219175496846,-1.2442893294152664,-0.8840804751774011,-0.9029625654220581,-0.3019351661205292,-0.3057672381401062, 236, 161, 70, 198
1731320602255,9i,7.625128148724916,1.3s : 0.4s,-0.35226357580080503,1.376686020665264,1.2104874928409355,0.8925808440684434,-0.942592203617096,1.1071733236312866,2.1084725856781006,0.8070517182350159,-0.27671289443969727,0.26229384541511536,0.28540393005613357,-1.2334705740817062,-0.8858946689133568,-0.9054707884788513,-0.28154507279396057,-0.31757652759552, 236, 161, 70, 198
1731320602265,9i,7.625128148724916,1.3s : 0.4s,-0.35226357580080503,1.3816082880117957,1.4453028769352747,0.9418557675970254,-1.0775907039642334,1.2777907848358154,2.4662439823150635,0.8262622952461243,-0.34289833903312683,0.29462456703186035,0.2605018138994674,-1.2210389804547785,-0.8877946602219242,-0.9077593684196472,-0.2575654685497284,-0.3311084508895874, 236, 161, 70, 198
1731320602275,9i,7.625128148724916,1.3s : 0.4s,-0.35226357580080503,1.3866985778774317,1.6866851193129655,1.0063296940473008,-1.2041826248168945,1.410402536392212,2.7984941005706787,0.8523290753364563,-0.41115495562553406,0.34232470393180847,0.23187799215168764,-1.2072452891057686,-0.8893597010184012,-0.9096257090568542,-0.22980566322803497,-0.34607839584350586, 236, 161, 70, 198
1731320602285,9i,7.625128148724916,1.3s : 0.4s,-0.35226357580080503,1.3919488834386764,1.9282472554235253,1.0716545569234202,-1.2493714094161987,1.5488603115081787,3.1408159732818604,0.9006077647209167,-0.46108686923980713,0.3531968891620636,0.19981648668528854,-1.1923190394458736,-0.8900668114480025,-0.9107394218444824,-0.1984894722700119,-0.3621538579463959, 236, 161, 70, 198
1731320602295,9i,7.625128148724916,1.3s : 0.4s,-0.35226357580080503,1.3975545909437928,2.1692088196100574,1.1245480962932601,-1.2145590782165527,1.7022788524627686,3.501417875289917,0.958761990070343,-0.47500744462013245,0.34605172276496887,0.16448129216588597,-1.1762918271397051,-0.8890127339275193,-0.9107272028923035,-0.16374064981937408,-0.37916335463523865, 236, 161, 70, 198
1731320602305,9i,7.625128148724916,1.3s : 0.4s,-0.35226357580080503,1.4037883062239171,2.4137516913686072,1.1730376673102088,-1.1492761373519897,1.8924742937088013,3.869868755340576,1.0308983325958252,-0.4635496735572815,0.3136681318283081,0.12601691999943848,-1.1588761691640945,-0.8854772806717062,-0.9090874195098877,-0.12568365037441254,-0.39719483256340027, 236, 161, 70, 198
1731320602315,9i,7.625128148724916,1.3s : 0.4s,-0.35226357580080503,1.4110956955820557,2.664855047036079,1.2164594130582773,-1.0476770401000977,2.085050344467163,4.262518882751465,1.1088027954101562,-0.41029730439186096,0.2863319516181946,0.08447776497100462,-1.139693577539524,-0.8789405153180366,-0.9052656292915344,-0.08437731862068176,-0.41638273000717163, 236, 161, 70, 198
1731320602325,9i,7.625128148724916,1.3s : 0.4s,-0.35226357580080503,1.4199781266724694,2.9208375548010164,1.2735638073026803,-1.000740647315979,2.2566678524017334,4.6399736404418945,1.193130373954773,-0.33910802006721497,0.2888086438179016,0.039961395817047204,-1.118603524289691,-0.8691774951087696,-0.8987730741500854,-0.03995076194405556,-0.43659016489982605, 236, 161, 70, 198
1731320602335,9i,7.625128148724916,1.3s : 0.4s,-0.35226357580080503,1.4307135131962483,3.1800022975261193,1.357328074904293,-1.0280779600143433,2.441624641418457,4.987513542175293,1.2810313701629639,-0.304986834526062,0.32906103134155273,-0.007516875819632894,-1.0953833758744917,-0.8567622344951474,-0.889078676700592,0.007516805082559586,-0.4576927125453949, 236, 161, 70, 198
1731320602345,9i,7.625128148724916,1.3s : 0.4s,-0.35226357580080503,1.4433891260918217,3.445299441516509,1.4601012392459063,-1.1660380363464355,2.6364498138427734,5.328476905822754,1.3666539192199707,-0.3136470317840576,0.4071587324142456,-0.058079717617618556,-1.0695783650579958,-0.8423409779756839,-0.8755192160606384,0.05804707109928131,-0.47968384623527527, 236, 161, 70, 198
1731320602355,9i,7.625128148724916,1.3s : 0.4s,-0.35226357580080503,1.4580253123425768,3.7121057029766877,1.5716847446072761,-1.2387417554855347,2.812819719314575,5.682154655456543,1.4496479034423828,-0.34279197454452515,0.50120609998703,-0.1118390669482203,-1.0409316138609483,-0.8258222629595285,-0.8574845790863037,0.11160606890916824,-0.5022590160369873, 236, 161, 70, 198
1731320602365,9i,7.625128148724916,1.3s : 0.4s,-0.35226357580080503,1.4747687927392057,3.9786290346227045,1.681963190586196,-1.224819302558899,2.995333433151245,6.045358657836914,1.537156343460083,-0.3493264317512512,0.5866187810897827,-0.16823414915676801,-1.009145768178807,-0.8059000793345756,-0.8344280123710632,0.1674416959285736,-0.5250648856163025, 236, 161, 70, 198
1731320602375,9i,7.625128148724916,1.3s : 0.4s,-0.35226357580080503,1.493909940461603,4.250736654871145,1.7872667109620213,-1.2320396900177002,3.1510117053985596,6.448393821716309,1.6286487579345703,-0.3190869987010956,0.6633317470550537,-0.22710100835941427,-0.973680410640919,-0.7818033607572727,-0.805726945400238,0.22515392303466797,-0.5478227734565735, 236, 161, 70, 198
1731320602385,9i,7.625128148724916,1.3s : 0.4s,-0.35226357580080503,1.5158599644094275,4.536473064702854,1.8896056431880348,-1.139776587486267,3.3493642807006836,6.903909683227539,1.7236716747283936,-0.24450254440307617,0.7346999049186707,-0.28832134109615565,-0.933551506217203,-0.7521596436884593,-0.7705617547035217,0.28434327244758606,-0.5704238414764404, 236, 161, 70, 198
1731320602395,9i,7.625128148724916,1.3s : 0.4s,-0.35226357580080503,1.5408351786786634,4.816991166383175,2.004272514282993,-1.049420952796936,3.5060837268829346,7.291999340057373,1.8416852951049805,-0.1865938901901245,0.7684310674667358,-0.35096609154432423,-0.8877549573808173,-0.7156304082294475,-0.7283734679222107,0.3438051640987396,-0.5926804542541504, 236, 161, 70, 198
1731320602405,9i,7.625128148724916,1.3s : 0.4s,-0.35226357580080503,1.5686413518781879,5.082117811676599,2.107382850379272,-1.1129770278930664,3.6943161487579346,7.570438385009766,1.9667314291000366,-0.1775432825088501,0.7358725070953369,-0.41426681321526765,-0.8356840654038101,-0.6725391477698509,-0.6790116429328918,0.4025188684463501,-0.6139395236968994, 236, 161, 70, 198
1731320602415,9i,7.625128148724916,1.3s : 0.4s,-0.35226357580080503,1.5993125276913986,5.355617483969235,2.21738667247101,-1.311989426612854,3.9551732540130615,7.900234699249268,2.0874032974243164,-0.1459110975265503,0.7336627840995789,-0.4783022999329104,-0.776121523170825,-0.6233861036893505,-0.6219031810760498,0.4602726697921753,-0.6335498690605164, 236, 161, 70, 198
1731320602425,9i,7.625128148724916,1.3s : 0.4s,-0.35226357580080503,1.6333933327215846,5.663331190707518,2.3688906620752506,-1.4424723386764526,4.205811500549316,8.405677795410156,2.2373950481414795,-0.049321532249450684,0.7767069935798645,-0.5434177614322167,-0.7068565457294569,-0.5656329418652396,-0.5558916330337524,0.5170644521713257,-0.6508678197860718, 236, 161, 70, 198
1731320602435,9i,7.625128148724916,1.3s : 0.4s,-0.35226357580080503,1.671566416139608,5.991066188874735,2.5653247427146986,-1.5900861024856567,4.339715957641602,8.943807601928711,2.440110206604004,0.08318096399307251,0.7872954607009888,-0.6088129604479366,-0.6260474442161058,-0.4959835670341176,-0.48066791892051697,0.571894109249115,-0.664752185344696, 236, 161, 70, 198
1731320602445,9i,7.625128148724916,1.3s : 0.4s,-0.35226357580080503,1.7144498273687994,6.340746149281369,2.7998998314464996,-1.994890809059143,4.605936527252197,9.414246559143066,2.691556930541992,0.23685145378112793,0.7340720295906067,-0.6737581768889155,-0.531377812415235,-0.4127074867405715,-0.39599403738975525,0.6239273548126221,-0.673723578453064, 236, 161, 70, 198
1731320602455,9i,7.625128148724916,1.3s : 0.4s,-0.35226357580080503,1.762559626432091,6.751786433468036,3.0253552356586435,-2.6460788249969482,5.135093688964844,9.953919410705566,2.9143686294555664,0.45802533626556396,0.6704047918319702,-0.7385280964278825,-0.4185195453568674,-0.314149369209109,-0.30052271485328674,0.673200249671936,-0.6756386160850525, 236, 161, 70, 198
1731320602465,9i,7.625128148724916,1.3s : 0.4s,-0.35226357580080503,1.8161106612661404,7.214629171832119,3.197578093581611,-3.5138099193573,5.670904636383057,10.457763671875,3.0394434928894043,0.7385176420211792,0.6639884114265442,-0.8024527817652954,-0.28159132834893674,-0.19575076239764105,-0.19311456382274628,0.7190628051757812,-0.6675742268562317, 236, 161, 70, 198
1731320602475,9i,7.625128148724916,1.3s : 0.4s,-0.35226357580080503,1.8750293010291519,7.685364166417799,3.363723474856433,-4.08079719543457,6.1398162841796875,10.868666648864746,3.141136646270752,1.0008549690246582,0.6679711937904358,-0.8611232609829018,-0.1162394847968973,-0.05261608595026253,-0.07556954026222229,0.7585749626159668,-0.647188663482666, 236, 161, 70, 198
1731320602485,9i,7.625128148724916,1.3s : 0.4s,-0.35226357580080503,1.9394529349179905,8.09407015466878,3.5728638162160915,-4.660301208496094,6.285346984863281,11.035945892333984,3.2670021057128906,1.2283344268798828,0.7637065052986145,-0.9066247975802406,0.07886892104217261,0.11839035690909534,0.04856496304273605,0.7874277234077454,-0.6144907474517822, 236, 161, 70, 198
1731320602495,9i,7.625128148724916,1.3s : 0.4s,-0.35226357580080503,2.009888871191511,8.458474533788744,3.875062269773103,-5.656145095825195,6.126104354858398,11.184545516967773,3.493948459625244,1.4564744234085083,0.8289234042167664,-0.9363703894610989,0.29736976469743903,0.3138540792541473,0.17366933822631836,0.8054121136665344,-0.5667011141777039, 236, 161, 70, 198
1731320602505,9i,7.625128148724916,1.3s : 0.4s,-0.35226357580080503,2.0878530625307232,8.81727349403992,4.35148715995435,-7.405298709869385,5.303926944732666,11.410969734191895,3.844024896621704,1.8259214162826538,0.9082533121109009,-0.949958155301898,0.5335101117391643,0.5336491652314574,0.29583725333213806,0.8133911490440369,-0.5008741617202759, 236, 161, 70, 198
1731320602515,9i,7.625128148724916,1.3s : 0.4s,-0.35226357580080503,2.1744638011163797,9.251623949496697,4.842212074934521,-9.797581672668457,3.9583888053894043,11.709256172180176,4.221280097961426,2.1220662593841553,1.0604937076568604,-0.9467610567106872,0.7803693543270198,0.7797337159943664,0.4110897183418274,0.8115271925926208,-0.4152452349662781, 236, 161, 70, 198
1731320602525,9i,7.625128148724916,1.3s : 0.4s,-0.35226357580080503,2.2697598667345655,9.943427329384365,5.233358073962056,-12.615096092224121,3.033367156982422,12.256241798400879,4.588433265686035,2.1817569732666016,1.254692554473877,-0.9215584895001728,1.0350112128680822,1.0531308709928917,0.5198585391044617,0.7965447902679443,-0.30864763259887695, 236, 161, 70, 198
1731320602534,9i,7.625128148724916,1.3s : 0.4s,-0.35226357580080503,2.3719163648337154,10.967321459654,5.424117906339037,-17.862232208251953,2.2625937461853027,10.997868537902832,4.949579238891602,1.8020601272583008,1.2943336963653564,-0.8725384538569753,1.2940048122514776,1.3485532184829878,0.6184139847755432,0.7659633159637451,-0.17568135261535645, 236, 161, 70, 198
1731320602544,9i,7.625128148724916,1.3s : 0.4s,-0.35226357580080503,2.4799338450901316,12.739373222386984,5.702638935649667,-25.676101684570312,0.44883742928504944,8.810249328613281,5.320068836212158,1.2598991394042969,1.621608018875122,-0.8037874701198582,1.56414066270668,1.6921424182979123,0.6939691305160522,0.7199897170066833,-0.004618893377482891, 236, 161, 70, 198
1731320602554,9i,7.625128148724916,1.3s : 0.4s,-0.35226357580080503,2.598058675463485,14.882199560480561,6.565786231022897,-31.187068939208984,-2.2455286979675293,5.367443561553955,5.699604511260986,1.5470073223114014,2.86894154548645,-0.6965511271519883,1.8132489975026265,2.068044398386241,0.7446244359016418,0.6415759921073914,0.18415889143943787, 236, 161, 70, 198
1731320602574,9i,7.625128148724916,1.3s : 0.4s,-0.35226357580080503,2.875796462281565,15.483324637881454,9.713176074602291,-26.990291595458984,-8.834573745727539,-1.5990134477615356,5.39823055267334,2.7648544311523438,7.586862087249756,-0.4234537534840819,2.0755874314833425,2.7575082526372667,0.7979670166969299,0.41091158986091614,0.4409085810184479, 236, 161, 70, 198
1731320602564,9i,7.625128148724916,1.3s : 0.4s,-0.35226357580080503,2.725564101877939,17.598785801539393,8.183847571803607,-33.79316711425781,-5.3759379386901855,0.650680422782898,6.20827579498291,2.562178134918213,4.676314353942871,-0.5598246915300583,1.9939220831639028,2.438169087504381,0.772620439529419,0.5310376882553101,0.34793177247047424, 236, 161, 70, 198
1731320602584,9i,7.625128148724916,1.3s : 0.4s,-0.35226357580080503,3.0577795638490595,16.08042676469396,11.913680981972101,-17.52733612060547,-10.029934883117676,-0.45487478375434875,4.21599817276001,3.575838327407837,10.553413391113281,-0.3300706322585243,2.054307792746025,2.967533924861566,0.837575376033783,0.32410985231399536,0.43979594111442566, 236, 161, 70, 198
1731320602594,9i,7.625128148724916,1.3s : 0.4s,-0.35226357580080503,3.242924159959247,14.590936735029901,13.387671577451185,-15.421146392822266,-6.568978309631348,1.2637760639190674,3.1174874305725098,5.905105113983154,11.603480339050293,-0.24957722336088903,2.013353010785753,3.1177931892439146,0.8756613731384277,0.24699430167675018,0.4149826169013977, 236, 161, 70, 198
1731320602604,9i,7.625128148724916,1.3s : 0.4s,-0.35226357580080503,3.4328512394430226,13.761383114195338,12.549127538817466,-16.80413055419922,-6.388661861419678,-3.7239902019500732,0.9313520789146423,7.640928268432617,9.9110746383667,-0.19427593725905087,1.9840540846405936,-3.010376749739394,0.8985886573791504,0.1930561512708664,0.3940400183200836, 236, 161, 70, 198
1731320602614,9i,7.625128148724916,1.3s : 0.4s,-0.35226357580080503,3.6024690074618393,12.552015989624898,7.5969508766431835,-12.578353881835938,-7.696883678436279,-5.798877239227295,0.2368539571762085,3.6182918548583984,6.675741672515869,-0.18240044680868703,1.9438251767935362,-2.8500328310000422,0.9157796502113342,0.18139071762561798,0.35839200019836426, 236, 161, 70, 198
1731320602624,9i,7.625128148724916,1.3s : 0.4s,-0.35226357580080503,3.7457984529058383,11.00877628776212,5.245919743134147,-8.051259994506836,-7.001924514770508,-7.573275566101074,1.192407488822937,-0.2544523775577545,5.102263450622559,-0.20989335998497097,1.894711771970501,-2.7293931368226545,0.9271908402442932,0.2083556056022644,0.3112955391407013, 236, 161, 70, 198
1731320602634,9i,7.625128148724916,1.3s : 0.4s,-0.35226357580080503,3.8634495057981164,10.009634247159774,3.020344752209922,-6.672857284545898,-7.47179651260376,-9.13955020904541,0.3836548924446106,1.5110437870025635,2.586897373199463,-0.26866597363792033,1.845095992321532,-2.632838945470191,0.9280820488929749,0.2654455006122589,0.26115548610687256, 236, 161, 70, 198
1731320602644,9i,7.625128148724916,1.3s : 0.4s,-0.35226357580080503,3.9584385363014483,9.45237209402195,3.264747644129663,-5.6212239265441895,-7.680778980255127,-10.060868263244629,-0.746529221534729,2.3873839378356934,2.098015546798706,-0.342493686266867,1.792592729902273,-2.54614402176218,0.9188466668128967,0.3358369767665863,0.20720581710338593, 236, 161, 70, 198
1731320602654,9i,7.625128148724916,1.3s : 0.4s,-0.35226357580080503,4.042326123591668,9.19279065647299,3.484145942215286,-4.339727878570557,-7.63431453704834,-11.223522186279297,0.22133105993270874,1.077991247177124,3.305785894393921,-0.43080122872631127,1.7378751991502104,-2.473462480747567,0.8959783911705017,0.4175989627838135,0.1511077582836151, 236, 161, 70, 198
1731320602664,9i,7.625128148724916,1.3s : 0.4s,-0.35226357580080503,4.1191618925915545,9.096020552932028,4.136441337354177,-2.9377822875976562,-7.613114833831787,-11.854989051818848,-0.2537512183189392,1.1730961799621582,3.9584848880767822,-0.5363490649108502,1.6852538820527436,-2.4156947823252413,0.8539554476737976,0.5110011100769043,0.09817072749137878, 236, 161, 70, 198
1731320602674,9i,7.625128148724916,1.3s : 0.4s,-0.35226357580080503,4.1885938542472445,9.185467917223823,4.306494018486743,-1.9729841947555542,-7.380549907684326,-12.785870552062988,-1.112992286682129,1.6623337268829346,3.813631534576416,-0.6570109521275436,1.6334247355900144,-2.372822206550972,0.7902688980102539,0.6107528209686279,0.049558091908693314, 236, 161, 70, 198
1731320602684,9i,7.625128148724916,1.3s : 0.4s,-0.35226357580080503,4.253272663264133,9.21439409799389,3.9856270245614946,-0.36027902364730835,-6.613609790802002,-13.084521293640137,-0.9394822716712952,2.0826451778411865,3.2657594680786133,-0.7859984991319872,1.5780335832644452,-2.350251068695573,0.7066635489463806,0.7075311541557312,0.005114394705742598, 236, 161, 70, 198
1731320602694,9i,7.625128148724916,1.3s : 0.4s,-0.35226357580080503,4.315766151048528,9.118261940103638,3.253172587977666,2.3467750549316406,-5.923065662384033,-12.85360336303711,-0.010734260082244873,1.7457607984542847,2.745056629180908,-0.9152111587895846,1.499751030038403,-2.370617506714746,0.6080852150917053,0.7926913499832153,-0.04327442869544029, 236, 161, 70, 198
1731320602704,9i,7.625128148724916,1.3s : 0.4s,-0.35226357580080503,4.374688177280894,8.932724265003039,2.4861973182429473,5.054819583892822,-5.2346110343933105,-11.980352401733398,0.6689538359642029,0.8451414108276367,2.2404048442840576,-1.0335331737077693,1.3643816999198222,-2.4662246005478314,0.5009221434593201,0.859112560749054,-0.10489160567522049, 236, 161, 70, 198
1731320602714,9i,7.625128148724916,1.3s : 0.4s,-0.35226357580080503,4.427098706825908,8.785786533051056,2.0983596329220675,7.290287494659424,-5.333469390869141,-10.66887092590332,0.7967315912246704,-0.14007538557052612,1.9361587762832642,-1.1214381216683327,1.134347710409298,-2.66674057152915,0.3936675190925598,0.9007260799407959,-0.18362592160701752, 236, 161, 70, 198
1731320602724,9i,7.625128148724916,1.3s : 0.4s,-0.35226357580080503,4.472673544330513,8.716670654217797,2.4460258320690813,8.859296798706055,-5.474898815155029,-9.357171058654785,0.7467731833457947,-0.9866431951522827,2.109954357147217,-1.1593139989414418,0.8101782347523984,-2.9638515276587785,0.28974097967147827,0.9165289402008057,-0.2757258117198944, 236, 161, 70, 198
1731320602734,9i,7.625128148724916,1.3s : 0.4s,-0.35226357580080503,4.510850687473563,8.720516369262253,2.8642281499131417,9.195619583129883,-5.788569927215576,-8.486705780029297,0.514915943145752,-1.704070806503296,2.243837594985962,-1.1410160128573774,0.46755835460967504,3.004172598432431,0.18779703974723816,0.9090573191642761,-0.3719504177570343, 236, 161, 70, 198
1731320602744,9i,7.625128148724916,1.3s : 0.4s,-0.35226357580080503,4.5401591599368105,8.752398292841649,2.8693258433800866,9.828136444091797,-5.595760345458984,-7.786231517791748,0.2837793827056885,-2.1513965129852295,1.877230167388916,-1.0771565079791443,0.19408615793774292,2.759678307531732,0.09138839691877365,0.8806140422821045,-0.4649377763271332, 236, 161, 70, 198
1731320602754,9i,7.625128148724916,1.3s : 0.4s,-0.35226357580080503,4.561420935363037,8.845659820732294,2.105623564490017,10.611618995666504,-5.627639293670654,-7.136255264282227,0.1839321106672287,-1.7327686548233032,1.1820881366729736,-0.9806369907055357,0.0008725062868418799,2.5993631545189255,0.00048554386012256145,0.8308520317077637,-0.5564931035041809, 236, 161, 70, 198
1731320602764,9i,7.625128148724916,1.3s : 0.4s,-0.35226357580080503,4.577165033816504,8.961850252562986,1.09836511104077,11.171125411987305,-5.832533836364746,-6.392190933227539,0.2419060468673706,-0.91824871301651,0.5520024299621582,-0.867053840127568,-0.13550028921793805,2.500819941638862,-0.08741085976362228,0.7624258399009705,-0.641144335269928, 236, 161, 70, 198
1731320602774,9i,7.625128148724916,1.3s : 0.4s,-0.35226357580080503,4.5911994167452255,8.97100440151696,0.5204081892984312,10.758893966674805,-5.914603233337402,-5.85772705078125,0.317399263381958,-0.08163875341415405,0.40424931049346924,-0.7475294469821482,-0.2360942880740278,2.4437997157610467,-0.17154055833816528,0.6798290014266968,-0.7130261659622192, 236, 161, 70, 198
1731320602784,9i,7.625128148724916,1.3s : 0.4s,-0.35226357580080503,4.606383802906016,8.75279921608857,0.7864139821555601,9.606843948364258,-5.940345287322998,-5.1095967292785645,0.48108434677124023,0.2971348166465759,0.5465489029884338,-0.6346870146296765,-0.3160424120427082,2.4119056280736015,-0.2502799332141876,0.592925488948822,-0.7653751969337463, 236, 161, 70, 198
1731320602794,9i,7.625128148724916,1.3s : 0.4s,-0.35226357580080503,4.625769823666024,8.391230918168148,1.3130060357064595,8.594305038452148,-5.943052768707275,-4.401748180389404,0.6933361887931824,0.505693256855011,0.9937525391578674,-0.5331729174512345,-0.38440940007895297,2.3963953215824487,-0.3229596018791199,0.508268415927887,-0.7983484864234924, 236, 161, 70, 198
1731320602804,9i,7.625128148724916,1.3s : 0.4s,-0.35226357580080503,4.650681367417068,7.961407526898134,1.7265017175994624,7.774235248565674,-5.853587627410889,-3.8131351470947266,0.8550785779953003,0.5915714502334595,1.3782931566238403,-0.44221724119698436,-0.4457605374818875,2.39193359586715,-0.38967031240463257,0.42794448137283325,-0.8154879212379456, 236, 161, 70, 198
1731320602814,9i,7.625128148724916,1.3s : 0.4s,-0.35226357580080503,4.679915336378428,7.523101937803336,1.8071876554986737,7.1583333015441895,-5.52434778213501,-3.593090057373047,0.8919786214828491,0.5610087513923645,1.4681861400604248,-0.35970788790696445,-0.5026572966290763,2.3953955664282063,-0.4509233236312866,0.3520008325576782,-0.8202216625213623, 236, 161, 70, 198
1731320602824,9i,7.625128148724916,1.3s : 0.4s,-0.35226357580080503,4.71147549475844,7.100131936252707,1.6962375323652397,6.684133052825928,-5.443505764007568,-3.098843812942505,0.8628936409950256,0.5165398120880127,1.3659512996673584,-0.28414325810500285,-0.5563766402614507,2.402871377384803,-0.5069366097450256,0.2803351581096649,-0.8151242136955261, 236, 161, 70, 198
1731320602834,9i,7.625128148724916,1.3s : 0.4s,-0.35226357580080503,4.743576520579989,6.730914855679501,1.540664732427912,6.384761810302734,-5.404543399810791,-2.7244372367858887,0.758657693862915,0.43908703327178955,1.2669999599456787,-0.21397011243204855,-0.6074705176397259,2.4140277027418864,-0.5577757358551025,0.21234114468097687,-0.8023698925971985, 236, 161, 70, 198
1731320602844,9i,7.625128148724916,1.3s : 0.4s,-0.35226357580080503,4.77546278961099,6.488093559191437,1.4226864874616794,6.536895751953125,-5.169646739959717,-2.931004047393799,0.7754074931144714,0.47283923625946045,1.0950813293457031,-0.14523980199735945,-0.6570155820537388,2.4288313101671233,-0.6043259501457214,0.14472970366477966,-0.7834815979003906, 236, 161, 70, 198
1731320602854,9i,7.625128148724916,1.3s : 0.4s,-0.35226357580080503,4.805979983938472,6.3861130605505165,1.223735975157356,7.232238292694092,-4.844285011291504,-2.9226691722869873,0.7190673351287842,0.5837482810020447,0.7998186349868774,-0.0735445091257851,-0.7047198770777185,2.4494926890293534,-0.6460692882537842,0.07347822934389114,-0.7597337961196899, 236, 161, 70, 198
1731320602864,9i,7.625128148724916,1.3s : 0.4s,-0.35226357580080503,4.834428132356408,6.350129098831506,1.1043051556088632,7.735785007476807,-4.461315631866455,-2.8778676986694336,0.6599618196487427,0.7184319496154785,0.5174899101257324,0.0017724280245124827,-0.7502387961871184,2.4777559614702263,-0.6818124055862427,-0.0017724271165207028,-0.7315249443054199, 236, 161, 70, 198
1731320602874,9i,7.625128148724916,1.3s : 0.4s,-0.35226357580080503,4.861645303698547,6.245306651482599,1.1904468268580597,7.568285942077637,-4.032121658325195,-2.6786484718322754,0.7592929005622864,0.8209547400474548,0.40825390815734863,0.07623181474352052,-0.7939543388335362,2.5121000878859583,-0.7110598087310791,-0.07615800201892853,-0.6989948749542236, 236, 161, 70, 198
1731320602884,9i,7.625128148724916,1.3s : 0.4s,-0.35226357580080503,4.888857709951671,6.012811269485142,1.266975275054963,6.903219223022461,-3.66943359375,-2.3836429119110107,0.8578363060951233,0.7458820343017578,0.5594668984413147,0.14427018470703526,-0.8362703804572685,2.5482895644811516,-0.7344384789466858,-0.143770232796669,-0.6632724404335022, 236, 161, 70, 198
1731320602894,9i,7.625128148724916,1.3s : 0.4s,-0.35226357580080503,4.917080369364104,5.670029562498925,1.3718130914176787,6.086043834686279,-3.3334085941314697,-2.1476340293884277,0.9012899398803711,0.5846951007843018,0.8530411720275879,0.20380949777570861,-0.8772715007396387,2.5837185062218873,-0.7530812621116638,-0.20240144431591034,-0.6260208487510681, 236, 161, 70, 198
1731320602904,9i,7.625128148724916,1.3s : 0.4s,-0.35226357580080503,4.946887143067205,5.228516591678364,1.5099056339790893,5.134860515594482,-2.9666993618011475,-1.9935485124588013,0.8565812706947327,0.5513222217559814,1.1145076751708984,0.2549730886003128,-0.9159518424514911,2.615977181597738,-0.7675003409385681,-0.25221937894821167,-0.5893458127975464, 236, 161, 70, 198
1731320602914,9i,7.625128148724916,1.3s : 0.4s,-0.35226357580080503,4.978557135730793,4.7350679777711635,1.6557501710470846,4.264438629150391,-2.62263560295105,-1.8687033653259277,0.7839305996894836,0.5568249225616455,1.3479270935058594,0.29828928680379685,-0.9512560070311807,2.643796846528865,-0.7781932950019836,-0.2938854694366455,-0.5550193190574646, 236, 161, 70, 198
1731320602924,9i,7.625128148724916,1.3s : 0.4s,-0.35226357580080503,5.011719527532906,4.232483553628141,1.714228496217566,3.5427279472351074,-2.246476888656616,-1.819359302520752,0.7634178400039673,0.48403245210647583,1.4565318822860718,0.33544166687142074,-0.982685599794765,2.666906960484079,-0.78561931848526,-0.32918626070022583,-0.5238689184188843, 236, 161, 70, 198
1731320602934,9i,7.625128148724916,1.3s : 0.4s,-0.35226357580080503,5.045412469160143,3.766864412384314,1.6408213708523367,3.127525568008423,-1.8110771179199219,-1.7403931617736816,0.7598093748092651,0.3991315960884094,1.3984557390213013,0.36830921284740104,-1.0095614048998873,2.686617650045023,-0.7898234128952026,-0.36003854870796204,-0.49653923511505127, 236, 161, 70, 198
1731320602944,9i,7.625128148724916,1.3s : 0.4s,-0.35226357580080503,5.079086785863198,3.390106933536479,1.5661853192668789,3.042607307434082,-1.446811318397522,-1.6829825639724731,0.7413327097892761,0.40372976660728455,1.3192287683486938,0.39888893156431565,-1.0327681358373744,2.705697246772838,-0.7913053035736084,-0.3883947432041168,-0.47221341729164124, 236, 161, 70, 198
1731320602954,9i,7.625128148724916,1.3s : 0.4s,-0.35226357580080503,5.112522319009391,3.079406058854794,1.5068498323057697,2.9576783180236816,-1.0998989343643188,-1.6216614246368408,0.7434916496276855,0.4368263781070709,1.2357181310653687,0.4282516233488375,-1.0531683421007385,2.725442596794434,-0.7905191779136658,-0.41528093814849854,-0.45013463497161865, 236, 161, 70, 198
1731320602964,9i,7.625128148724916,1.3s : 0.4s,-0.35226357580080503,5.14542724551125,2.781203690048011,1.4640467940689044,2.632176637649536,-0.8303365707397461,-1.5143556594848633,0.7217426300048828,0.3987574577331543,1.2097574472427368,0.455583818395895,-1.0707246474556602,2.7445344501157805,-0.7880420088768005,-0.4399866461753845,-0.4305826425552368, 236, 161, 70, 198
1731320602974,9i,7.625128148724916,1.3s : 0.4s,-0.35226357580080503,5.177572144892002,2.4717965445437278,1.436255158857684,2.1845648288726807,-0.6161391735076904,-1.3520792722702026,0.6915431022644043,0.27777278423309326,1.2277781963348389,0.4795520297360277,-1.0851231591292396,2.761035744618719,-0.7846064567565918,-0.46138179302215576,-0.41414907574653625, 236, 161, 70, 198
1731320602984,9i,7.625128148724916,1.3s : 0.4s,-0.35226357580080503,5.208550440833624,2.1642172997260873,1.3982767734184187,1.80389404296875,-0.4276638329029083,-1.1568580865859985,0.6279641389846802,0.1195841133594513,1.2435990571975708,0.49976408222486934,-1.0966543576311834,2.774893572598178,-0.7808724641799927,-0.4792184829711914,-0.4007340669631958, 236, 161, 70, 198
1731320602994,9i,7.625128148724916,1.3s : 0.4s,-0.35226357580080503,5.237850755276892,1.8667853806328858,1.338312075909959,1.4422905445098877,-0.2800053060054779,-0.996786892414093,0.5331776738166809,-0.024531513452529907,1.2272729873657227,0.516658251328678,-1.105509999487008,2.7863206562507106,-0.7770435810089111,-0.4939773380756378,-0.39011478424072266, 236, 161, 70, 198
1731320603004,9i,7.625128148724916,1.3s : 0.4s,-0.35226357580080503,5.265184704627256,1.5723564907173224,1.2677494356660732,1.0644676685333252,-0.16079476475715637,-0.8061245679855347,0.4471368193626404,-0.11247742176055908,1.1809344291687012,0.5302307488552693,-1.111800836535991,2.7948668955819107,-0.7734002470970154,-0.5057324171066284,-0.3822130858898163, 236, 161, 70, 198
1731320603014,9i,7.625128148724916,1.3s : 0.4s,-0.35226357580080503,5.29043075104246,1.2916484174769747,1.1774207323750887,0.7535133957862854,-0.08810094743967056,-0.6008840799331665,0.39268094301223755,-0.15999001264572144,1.0984190702438354,0.5404354105566832,-1.1159564780091198,2.8010821744979983,-0.770305335521698,-0.514509379863739,-0.3767088055610657, 236, 161, 70, 198
1731320603024,9i,7.625128148724916,1.3s : 0.4s,-0.35226357580080503,5.313538834554622,1.0328118667677306,1.09421675601106,0.4930328130722046,-0.047480277717113495,-0.4255082607269287,0.34991341829299927,-0.21032863855361938,1.0152008533477783,0.5476225125842482,-1.1185748375742746,2.8052244257001884,-0.7679431438446045,-0.5206589102745056,-0.37306514382362366, 236, 161, 70, 198
1731320603034,9i,7.625128148724916,1.3s : 0.4s,-0.35226357580080503,5.334446456481841,0.7920997824160355,1.0049684759559339,0.25634637475013733,-0.023076048120856285,-0.2393452525138855,0.30106639862060547,-0.25237077474594116,0.9250025153160095,0.5518230087505084,-1.119976504186304,2.8077237137893163,-0.7664899230003357,-0.5242404937744141,-0.371032178401947, 236, 161, 70, 198
1731320603044,9i,7.625128148724916,1.3s : 0.4s,-0.35226357580080503,5.35313283946824,0.5827652899033363,0.9161662323969088,0.12144741415977478,-0.0034269781317561865,-0.07534485310316086,0.2424653172492981,-0.27495962381362915,0.8396239280700684,0.5533757536570992,-1.1205363768465668,2.809109142266354,-0.7659636735916138,-0.5255621671676636,-0.3702482581138611, 236, 161, 70, 198
1731320603054,9i,7.625128148724916,1.3s : 0.4s,-0.35226357580080503,5.3696563963395825,0.3923811283319794,0.8509327299613466,-0.05902089923620224,0.0019435525173321366,0.05276158079504967,0.17817479372024536,-0.3015221357345581,0.7755157351493835,0.5534510731519356,-1.1207009941030397,2.809727116055988,-0.7659890651702881,-0.5256262421607971,-0.37010496854782104, 236, 161, 70, 198
1731320603064,9i,7.625128148724916,1.3s : 0.4s,-0.35226357580080503,5.38398086372038,0.21266850053409517,0.7822565889907652,-0.2437817007303238,0.04874061793088913,0.18334169685840607,0.09920847415924072,-0.32275497913360596,0.7056289911270142,0.5516133235916814,-1.1199168351871374,2.808973580971721,-0.7665667533874512,-0.524061918258667,-0.37112581729888916, 236, 161, 70, 198
1731320603074,9i,7.625128148724916,1.3s : 0.4s,-0.35226357580080503,5.396166365881917,0.04770130411532869,0.6981500377256337,-0.3943927586078644,0.06436023861169815,0.3420780897140503,0.010023653507232666,-0.29382675886154175,0.6332288980484009,0.5477451694213454,-1.118278343801633,2.807222259899909,-0.7677749395370483,-0.5207635760307312,-0.3732648491859436, 236, 161, 70, 198
1731320603084,9i,7.625128148724916,1.3s : 0.4s,-0.35226357580080503,5.406349920712673,0.12165523691438462,0.6114272758715288,-0.6018197536468506,0.10364052653312683,0.43293261528015137,-0.04398787021636963,-0.26296883821487427,0.550232470035553,0.541987544571162,-1.115816448416936,2.8042993948479498,-0.7695344090461731,-0.515839695930481,-0.3764653503894806, 236, 161, 70, 198
1731320603093,9i,7.625128148724916,1.3s : 0.4s,-0.35226357580080503,5.41482255636254,0.2808447242845171,0.5132017329325054,-0.8210023641586304,0.14506511390209198,0.5092845559120178,-0.06383025646209717,-0.20673781633377075,0.4653613567352295,0.5345616635604258,-1.111978049813449,2.79953571816213,-0.7714968323707581,-0.509463906288147,-0.3811023235321045, 236, 161, 70, 198
1731320603103,9i,7.625128148724916,1.3s : 0.4s,-0.35226357580080503,5.421883165685841,0.4396802507090761,0.44779165606595683,-1.0387147665023804,0.15289907157421112,0.5998442769050598,-0.0812268853187561,-0.16462641954421997,0.4084332287311554,0.5253622270780924,-1.107050539821609,2.7929854742910694,-0.7737687230110168,-0.501526415348053,-0.386979341506958, 236, 161, 70, 198
1731320603113,9i,7.625128148724916,1.3s : 0.4s,-0.35226357580080503,5.4277159588630814,0.5811504372762998,0.4071871352410597,-1.182645320892334,0.16234539449214935,0.64963698387146,-0.08105170726776123,-0.17178231477737427,0.36017054319381714,0.5146898502843238,-1.1013859753064212,2.7850511415074544,-0.7762938737869263,-0.49226489663124084,-0.39375513792037964, 236, 161, 70, 198
1731320603123,9i,7.625128148724916,1.3s : 0.4s,-0.35226357580080503,5.432555808217144,0.6968992873819132,0.3609746818371995,-1.260271430015564,0.16620244085788727,0.679815948009491,-0.06816190481185913,-0.16310042142868042,0.3147299289703369,0.5031744730913623,-1.095407200922582,2.7763328809448726,-0.7789144515991211,-0.4822089672088623,-0.400957316160202, 236, 161, 70, 198
1731320603143,9i,7.625128148724916,1.3s : 0.4s,-0.35226357580080503,5.441195628300594,0.8135834271687661,0.30103690463052624,-1.435957670211792,0.2115408182144165,0.7182803750038147,-0.058262407779693604,-0.0689125657081604,0.2871929109096527,0.47808425044960223,-1.0822427464970517,2.7567096750144584,-0.7840074300765991,-0.4600790739059448,-0.4167247414588928, 236, 161, 70, 198
1731320603133,9i,7.625128148724916,1.3s : 0.4s,-0.35226357580080503,5.437407432509699,0.8807906929247501,0.3219192995486716,-1.3664188385009766,0.1928531527519226,0.6979863047599792,-0.06373214721679688,-0.12405481934547424,0.29013901948928833,0.4909341583101186,-1.0890655921942005,2.7668739393250856,-0.7815284729003906,-0.47144991159439087,-0.40859296917915344, 236, 161, 70, 198
1731320603153,9i,7.625128148724916,1.3s : 0.4s,-0.35226357580080503,5.444813901250798,0.9517847050840181,0.2875689253310739,-1.4714022874832153,0.21915790438652039,0.7484619617462158,-0.040857911109924316,-0.03753304481506348,0.2821662425994873,0.46469949844676234,-1.0753367720466458,2.746365044558875,-0.7864583134651184,-0.44815418124198914,-0.4250189960002899, 236, 161, 70, 198
1731320603163,9i,7.625128148724916,1.3s : 0.4s,-0.35226357580080503,5.448471542788199,0.9983340213822572,0.26366234616907913,-1.4544885158538818,0.2409910261631012,0.7403517961502075,-0.013536334037780762,-0.03873252868652344,0.2604503631591797,0.45109707263462423,-1.0684925607123865,2.7361444702361246,-0.7888013124465942,-0.43595314025878906,-0.4332866370677948, 236, 161, 70, 198
1731320603173,9i,7.625128148724916,1.3s : 0.4s,-0.35226357580080503,5.452149158985403,1.0307876072507793,0.24409231896978684,-1.4437226057052612,0.2656756639480591,0.7518336772918701,0.011646509170532227,-0.024612724781036377,0.24256882071495056,0.4375493617817959,-1.0617072049224492,2.726282463557003,-0.7909280061721802,-0.42372095584869385,-0.4414671063423157, 236, 161, 70, 198
1731320603183,9i,7.625128148724916,1.3s : 0.4s,-0.35226357580080503,5.4558943599837155,1.062731473847623,0.23359082401706202,-1.4775383472442627,0.28655219078063965,0.7798916697502136,0.028683245182037354,-0.010751426219940186,0.23157364130020142,0.4236862398092143,-1.0548584707767352,2.7166647732002853,-0.7929196357727051,-0.4111235439777374,-0.4497285485267639, 236, 161, 70, 198
1731320603193,9i,7.625128148724916,1.3s : 0.4s,-0.35226357580080503,5.459763592745449,1.1044017072333088,0.2566977924131101,-1.5665028095245361,0.30263006687164307,0.8132851123809814,0.059339046478271484,-0.01197776198387146,0.24945774674415588,0.40923083917886033,-1.0478463674545118,2.7070101650585117,-0.7948126196861267,-0.39790380001068115,-0.4581979513168335, 236, 161, 70, 198
1731320603203,9i,7.625128148724916,1.3s : 0.4s,-0.35226357580080503,5.463815167686871,1.1579909162720776,0.2980407848197243,-1.6667319536209106,0.3313564956188202,0.8764915466308594,0.09013742208480835,-0.023934751749038696,0.28307363390922546,0.393803721807537,-1.0405506846863368,2.6968413845632675,-0.7966497540473938,-0.38370373845100403,-0.4670335650444031, 236, 161, 70, 198
1731320603213,9i,7.625128148724916,1.3s : 0.4s,-0.35226357580080503,5.468492349764782,1.2196309867654884,0.33959411708272774,-1.7690521478652954,0.352113276720047,0.9353102445602417,0.11181646585464478,-0.03655886650085449,0.31856662034988403,0.37724823873600444,-1.0330624169118336,2.6862858217840246,-0.7984771728515625,-0.368363618850708,-0.47617462277412415, 236, 161, 70, 198
1731320603223,9i,7.625128148724916,1.3s : 0.4s,-0.35226357580080503,5.473876203573498,1.2884816410362796,0.3939787352508633,-1.872188687324524,0.40251651406288147,0.9986788630485535,0.13089531660079956,-0.05154469609260559,0.36800652742385864,0.3595650767144577,-1.0252179650961684,2.6752566339611183,-0.8001610040664673,-0.3518671691417694,-0.48572805523872375, 236, 161, 70, 198
1731320603233,9i,7.625128148724916,1.3s : 0.4s,-0.35226357580080503,5.480005087953911,1.3592554480533696,0.4523858699066422,-1.940441370010376,0.4870174825191498,1.0794191360473633,0.1364232301712036,-0.06827884912490845,0.42588692903518677,0.3407586631060024,-1.0168472300601992,2.664112389071139,-0.8015537858009338,-0.33420222997665405,-0.49580270051956177, 236, 161, 70, 198
1731320603243,9i,7.625128148724916,1.3s : 0.4s,-0.35226357580080503,5.486956609565069,1.4173264322349775,0.5045140544522728,-1.9241292476654053,0.5487231612205505,1.170512080192566,0.15086275339126587,-0.06734475493431091,0.4766964912414551,0.32096559134372926,-1.008103621452215,2.653488611120977,-0.8026266098022461,-0.3154829740524292,-0.5062222480773926, 236, 161, 70, 198
1731320603253,9i,7.625128148724916,1.3s : 0.4s,-0.35226357580080503,5.4948519600713706,1.467853112552181,0.5456861164341442,-1.9246158599853516,0.6365295648574829,1.2259447574615479,0.1897861361503601,-0.04602700471878052,0.5095449686050415,0.30053290509871095,-0.9990815220358573,2.6436152881450945,-0.8032810091972351,-0.296029269695282,-0.516823410987854, 236, 161, 70, 198
1731320603263,9i,7.625128148724916,1.3s : 0.4s,-0.35226357580080503,5.503768966507574,1.527286795673988,0.5838374090985429,-2.007492780685425,0.7354185581207275,1.272579312324524,0.2322118878364563,-0.02012595534324646,0.5352931022644043,0.2794091276322379,-0.9894004449698656,2.6338229897749224,-0.8032872676849365,-0.27578774094581604,-0.527892529964447, 236, 161, 70, 198
1731320603273,9i,7.625128148724916,1.3s : 0.4s,-0.35226357580080503,5.513820268602238,1.6107357275263332,0.6449685724503468,-2.1694798469543457,0.8610767126083374,1.3481969833374023,0.2677963972091675,-0.006832867860794067,0.5867050886154175,0.2569723151598477,-0.978670484490962,2.623621062659053,-0.8025100827217102,-0.25415346026420593,-0.5397995114326477, 236, 161, 70, 198
1731320603283,9i,7.625128148724916,1.3s : 0.4s,-0.35226357580080503,5.525206736765064,1.7154605583454468,0.7307809643048966,-2.3558619022369385,0.9775140881538391,1.4306479692459106,0.30489999055862427,0.002259552478790283,0.664132297039032,0.23279591356969384,-0.9667749700787825,2.612762961938164,-0.8008564710617065,-0.23069891333580017,-0.5526363253593445, 236, 161, 70, 198
1731320603293,9i,7.625128148724916,1.3s : 0.4s,-0.35226357580080503,5.53808867527943,1.8370671358921256,0.8133751281017088,-2.560810089111328,1.1073896884918213,1.4927653074264526,0.34703630208969116,0.023682251572608948,0.7352442145347595,0.20676240041368285,-0.9537567914319615,2.601002321921125,-0.7982233762741089,-0.20529234409332275,-0.5662988424301147, 236, 161, 70, 198
1731320603303,9i,7.625128148724916,1.3s : 0.4s,-0.35226357580080503,5.552559634767725,1.9696254501223558,0.8831671636433561,-2.749483823776245,1.2415387630462646,1.5674861669540405,0.38899731636047363,0.0667063295841217,0.7900731563568115,0.17886460276870614,-0.9395672769664305,2.588386745595794,-0.7944232821464539,-0.1779123991727829,-0.5807225108146667, 236, 161, 70, 198
1731320603313,9i,7.625128148724916,1.3s : 0.4s,-0.35226357580080503,5.568608935915605,2.1023933149674496,0.9399380531068763,-2.8963451385498047,1.3627961874008179,1.6425257921218872,0.42759716510772705,0.1147884726524353,0.8291367888450623,0.14918523862453167,-0.9244091469035673,2.5754084968332207,-0.7893982529640198,-0.1486324667930603,-0.5956162214279175, 236, 161, 70, 198
1731320603323,9i,7.625128148724916,1.3s : 0.4s,-0.35226357580080503,5.586109204051794,2.227806950439379,0.9796034802706913,-3.0072269439697266,1.4725221395492554,1.7075780630111694,0.4712687134742737,0.15018531680107117,0.8455608487129211,0.1179574581748526,-0.9084666658431243,2.562326023350667,-0.7830820083618164,-0.11768410354852676,-0.6106823086738586, 236, 161, 70, 198
1731320603333,9i,7.625128148724916,1.3s : 0.4s,-0.35226357580080503,5.60487742969495,2.3479086439583354,1.0076916657013584,-3.112210750579834,1.5678471326828003,1.7915955781936646,0.5093351602554321,0.17924579977989197,0.8508179187774658,0.08527870574115416,-0.8919898092896389,2.549439758049276,-0.7754941582679749,-0.08517538011074066,-0.6255828738212585, 236, 161, 70, 198
